Label,Input,S1_MeanAccelX,S1_StdAccelX,S1_MeanAccelY,S1_StdAccelY,S1_MeanAccelZ,S1_StdAccelZ,S1_MeanGyroX,S1_StdGyroX,S1_MeanGyroY,S1_StdGyroY,S1_MeanGyroZ,S1_StdGyroZ,S2_MeanAccelX,S2_StdAccelX,S2_MeanAccelY,S2_StdAccelY,S2_MeanAccelZ,S2_StdAccelZ,S2_MeanGyroX,S2_StdGyroX,S2_MeanGyroY,S2_StdGyroY,S2_MeanGyroZ,S2_StdGyroZ,S3_MeanAccelX,S3_StdAccelX,S3_MeanAccelY,S3_StdAccelY,S3_MeanAccelZ,S3_StdAccelZ,S3_MeanGyroX,S3_StdGyroX,S3_MeanGyroY,S3_StdGyroY,S3_MeanGyroZ,S3_StdGyroZ,S4_MeanAccelX,S4_StdAccelX,S4_MeanAccelY,S4_StdAccelY,S4_MeanAccelZ,S4_StdAccelZ,S4_MeanGyroX,S4_StdGyroX,S4_MeanGyroY,S4_StdGyroY,S4_MeanGyroZ,S4_StdGyroZ,S5_MeanAccelX,S5_StdAccelX,S5_MeanAccelY,S5_StdAccelY,S5_MeanAccelZ,S5_StdAccelZ,S5_MeanGyroX,S5_StdGyroX,S5_MeanGyroY,S5_StdGyroY,S5_MeanGyroZ,S5_StdGyroZ
A,1,503.5,3582.5070481437997,-159.375,2650.6071209017377,152.875,2398.547421748213,14.21875,1568.2835110076358,5.53125,4167.55389125605,-23.25,2705.0911837681183,516.125,3990.533608977,-47.875,2248.997217511618,55.75,3990.212016610145,13.53125,2513.10880664237,8.25,6424.966245047518,-29.8125,2380.8461132218836,525.5,4629.807960380214,-61.875,2663.1327387824663,-76.625,4377.825271681706,-6.78125,3591.6181653815092,26.625,7385.753531927193,-23.03125,2543.5226862116715,530.0,4807.911292858886,-91.375,2302.1985382184134,13.0,4199.610815301818,18.375,2974.7367924532414,20.75,6587.150227905843,-26.8125,3076.487368305573,-441.625,2432.022997295667,122.5,1575.780996839345,-271.125,1894.8270988074348,21.3125,1456.5072398871728,23.5625,1267.8087626269785,-20.40625,981.1950576775943
A,2,984.5,2566.5322421508754,-273.625,2671.880397655367,273.125,2542.938897098198,-19.125,3408.350212621203,15.3125,4314.502038456321,18.0625,2863.027232422659,1026.0,2884.4333932334093,-241.875,2262.942991852645,179.125,4770.840359347083,10.65625,2993.5864110771777,50.3125,4765.220459469189,16.5,2004.3657974531495,1056.375,3377.9996091437015,-208.625,2209.139449961229,-117.125,6144.510577285631,19.625,2881.743252247674,81.59375,5606.1352154323695,19.65625,2406.138940415939,1011.25,4212.706189315842,-263.875,3527.1083743450527,-123.875,4960.50919607806,53.5625,3492.580286635334,38.28125,4617.996184997172,34.21875,2477.565459962347,-43.5,811.3000369776893,-31.125,2047.4786285514679,170.75,1105.6022962620873,5.46875,2728.6991404373325,18.5625,768.2737523785061,-60.53125,1225.4935736361238
A,3,990.375,3565.9102427535945,-266.375,2541.938995997937,88.875,3781.15547609127,16.59375,5182.045993496288,140.96875,5734.531282526362,88.21875,5030.1882092918195,1012.625,4396.220093372828,-220.75,2909.548150056981,57.75,8770.556364193779,-1.84375,4872.697187578553,127.0625,6846.49554944672,73.84375,3607.6701719164876,1008.75,4855.029396151995,-211.875,3298.314491429676,-198.375,7352.772868746525,12.6875,3299.9308556913356,128.96875,7054.263739418412,65.9375,2942.6718719717546,982.375,3989.5548447633855,-270.25,2141.713318233792,-102.25,5012.945634803952,55.5625,2889.3337785021913,77.84375,6312.826848515326,80.15625,2900.3002334820335,-82.25,679.7763878658923,-8.625,2670.2983184234304,139.0,1208.1138191412265,93.71875,2799.487176635828,36.4375,651.2957247623771,-37.625,1294.8267922293699
A,4,998.875,3293.621143115128,-242.125,3215.141363046888,137.625,2830.3423572732327,-33.1875,1894.2366278645734,78.75,3901.0452285252986,-6.78125,3658.335906993566,1007.375,4750.08095819166,-247.25,2753.209479407624,11.875,5168.401637293197,-59.34375,2155.416238939926,82.53125,5542.192396653461,5.84375,2589.7775496818135,1012.0,4709.672281592425,-204.375,2288.208111028147,-215.25,6316.022358850545,-49.28125,2049.190560233098,85.78125,6316.444147690886,9.0625,2142.541422258564,964.25,3968.3005099790516,-244.5,2825.6781044556365,-168.25,4676.7287645853485,-20.28125,2522.4148924489878,55.65625,6592.470186742291,26.375,2883.040287071098,-22.0,641.9618368719437,59.625,2415.3141326492087,103.75,948.3163699420146,26.25,1777.0966314469229,2.15625,2947.9082426079576,-37.6875,1519.2935331408971
A,5,1008.375,2843.0744554750936,-230.375,1966.0014901761901,52.0,1888.2203261272239,-55.09375,2004.2757476108266,-84.4375,4436.207261963055,-26.34375,2974.633408184265,1034.0,2747.3152349157167,-236.375,1725.6489675988566,-80.625,3412.22494999597,-62.46875,2323.9437652455013,-112.65625,5270.500608394419,-57.84375,2564.3531848861885,1018.875,4237.924047735519,-210.75,2615.783522675376,-220.375,4999.0744502732705,-58.09375,2698.923539572942,-61.03125,5378.08497216002,-39.96875,2064.320900507825,1001.625,4556.3388657314545,-238.875,1823.2471676585706,-146.0,4077.5350397022953,-60.59375,3123.1382240001703,-8.90625,6108.558879552602,-39.125,2870.0109619781942,-84.0,611.3967615223359,-13.875,1448.9202822705602,155.375,964.0913387096681,-35.65625,2146.290486067983,-11.5,795.5672111770318,-46.0625,1330.4788362066306
A,6,949.875,3883.6581961309366,-229.5,3167.4702445326934,122.5,3231.7993053406026,-16.25,3886.215961574961,56.625,5911.508520198123,-23.96875,4844.590652756272,1006.375,4617.182350673947,-184.625,2485.367600451692,46.75,6849.269117029933,-43.25,3224.3838752543097,19.5,6817.754487366056,-23.46875,3596.8518003975973,1004.375,5641.57046923771,-164.0,2573.1432140477527,-170.625,6765.752035758848,-32.1875,3422.784040783723,0.0625,7803.402294582393,-6.84375,3329.9092715622055,1012.125,4949.004797368356,-219.375,3106.410325339362,-83.375,5855.165506574088,-19.375,3487.7811244220875,16.1875,7787.1541594053315,11.53125,4039.257264525675,-94.625,1028.0985406929628,-53.625,1610.10305861923,200.125,1670.3698645434788,-10.625,2297.831882313195,44.03125,1839.118156283994,2.84375,1447.8472189205384
A,7,1028.875,3008.695354198394,-173.125,2346.5598723184116,50.75,2500.4302504769053,43.625,3101.649699655814,296.625,5395.748411654772,47.78125,4745.2182229480695,1030.25,3735.9370896068367,-219.375,1668.1172349013723,84.625,4339.791943097618,40.375,2746.421714590642,408.0625,6196.626370138331,86.96875,3074.8967308307183,1099.125,4975.705450926029,-179.625,2005.7106868576534,36.875,7365.145805371066,16.34375,2308.204965570852,424.84375,6962.858025397038,65.84375,2767.321709584185,1051.125,6063.587447573837,-283.75,2734.1333064611167,-5.875,7359.560243953099,45.40625,2452.971703609917,204.5,6901.539031259622,129.28125,2988.4060156960663,-19.875,604.1154561629755,-72.875,1268.3681383474595,164.125,1254.5953468648765,50.8125,2212.716789343758,95.40625,680.5391180607751,18.09375,1066.9971110368283
A,8,990.875,3775.441859488105,-223.0,2991.1837121781737,20.125,3020.3735670236224,7.78125,3902.9335260030293,53.25,5925.225939784913,-12.96875,4743.092236903414,1006.125,4498.575439444691,-174.125,3016.46962265079,-97.25,7856.106378957708,0.625,5636.3506131516515,-15.875,6072.409662512486,-34.53125,3660.7845298546918,1013.875,5032.857636013064,-160.5,2697.4177930012993,-237.375,8172.4214042947515,3.9375,3150.096634802455,46.34375,6245.386510303901,-18.6875,3051.553195070299,1035.5,5089.956753254392,-207.5,3227.9654195793364,-102.375,8561.918585187259,28.28125,3195.811528727631,78.5625,6619.919665003024,13.90625,5185.440400531177,-44.0,688.8279901397735,0.75,1941.1737267694512,70.125,1491.9942977019048,33.84375,2895.2741138510423,38.71875,991.8560012161229,-22.0625,1180.0302680837258
A,9,982.5,3239.0260496019478,-169.875,1871.3660743892415,219.375,2386.9336206470007,27.25,3253.0136700450553,319.25,5404.2366019633155,23.65625,3771.3818638644825,1010.75,2952.9988888416465,-201.5,3304.9533657829425,58.125,4815.211104860824,24.03125,3428.3909444188885,241.0,6280.314373102671,52.6875,3003.926674345389,1055.375,4973.749803656694,-180.375,2846.3507091317824,-103.25,5560.33591049138,12.5,2569.2923393417104,180.78125,6393.736596928156,52.71875,2721.8972040928434,1062.625,4165.85904818862,-235.125,1929.6905799570561,-2.625,5475.313745291223,27.25,2597.267013131303,72.71875,5791.670356179506,100.5,2547.9756057505733,-21.375,595.3726642826323,-54.0,1319.6620779578384,77.625,1968.2189561568093,37.90625,2300.4275059129636,23.53125,1585.3390407176119,-21.40625,1407.0388867088705
A,10,969.125,3371.194185207224,-393.625,2589.2496711161325,287.625,2258.548285818791,80.96875,3391.715333761582,240.1875,5911.668580218596,213.6875,4938.409906269806,972.25,4195.83638116407,-403.0,2501.721407351346,198.875,5687.729268730624,20.125,4343.198740200015,240.25,7424.7314177012495,142.46875,3630.6466537000592,987.875,5539.855727758169,-330.625,3040.6413154752404,-119.75,6250.997515397043,132.875,2481.208019166269,305.3125,7659.251250275301,130.375,2806.2389170159763,1014.125,5076.552371873553,-405.5,2798.4495260768954,18.125,5763.74921248097,193.6875,2949.980089313104,266.5625,7824.929959500836,215.125,3206.5951836605445,-21.875,942.4950845362537,-34.875,2535.71907639135,48.875,1936.621990574051,341.34375,2457.6530930108784,90.25,1681.2536059440883,54.65625,1655.3903733216337
A,11,1026.625,2874.7510517216965,-281.875,1736.383017762786,240.125,2585.741960129626,62.09375,2101.5448240427654,363.90625,5885.090766926279,49.0,3908.8280132924756,1069.125,4174.934997622718,-306.875,1363.3346010334367,314.625,5988.818715688011,70.46875,2864.369073028725,524.875,6888.406477326595,73.78125,3346.74375078201,1134.875,5807.844973342091,-301.0,2058.001943633679,122.125,6854.199222693705,105.0625,1587.8004821430652,610.375,6688.532054709389,63.1875,2725.3957446293466,1105.25,5340.981130606998,-408.0,2772.071968762716,99.875,6234.052573116062,196.9375,1679.282341833484,493.84375,6928.97255239447,305.1875,2858.4738327197874,-5.25,939.3728958725603,-4.25,1940.1878613938393,65.0,1615.5107551483525,188.53125,1565.3464868914605,2.5625,1198.685658792058,56.125,1236.779632503301
A,12,992.875,3704.0238571552154,-252.375,2960.954298765011,202.875,3177.578517420931,102.34375,2161.1588414750863,262.09375,5820.285121663795,113.40625,4439.967200465668,1077.0,3512.009253974141,-282.75,3368.4909733439986,323.75,6185.660994388554,63.71875,2359.2338300067754,186.96875,6595.218298530644,78.0,3240.503780278616,1154.75,5536.863772705628,-215.0,2148.4520008601544,145.0,7457.345707421643,93.59375,2621.9756847100884,326.0625,7568.943746229968,108.96875,3058.2737827528517,1114.875,5113.090575608357,-457.5,2142.3108434585306,189.5,6915.739060288495,191.78125,3147.1098520544906,290.21875,7718.424178282666,246.375,3685.54134210634,-9.25,638.8093905853294,-85.375,1359.4986610420033,96.25,1591.793308661649,242.75,2869.772377733119,33.90625,859.1360616694759,-6.4375,1387.9096002959811
A,13,926.25,3209.844379015905,-249.25,2109.1432946815157,186.125,2775.822037590847,31.15625,2232.7472162866843,145.53125,4260.1958507237005,31.78125,3656.6972866096585,972.875,3819.9850437370824,-217.625,1804.111376654723,50.625,6412.388058233453,10.0,3374.0098362334393,46.9375,6071.6609287404835,4.0625,2892.3056755975413,946.25,5205.75844017949,-178.0,2515.940182118804,-162.375,6166.924424652454,26.34375,2839.954319718178,22.71875,6625.173456381986,-3.40625,2885.2378352938144,1009.375,4288.112476297118,-255.875,1894.6135448621178,-53.125,5692.682955722636,66.59375,3096.5386104828303,-5.15625,7076.334618419054,71.03125,3272.622977868584,-31.5,692.7472482803522,-16.5,1649.2370205643579,133.875,1254.3388634555656,59.625,2027.4595056067087,-5.40625,1639.0815808589082,7.625,1913.8072452248164
A,14,972.375,3173.9342084194186,-344.375,3338.815562347672,330.875,2857.577511525278,86.53125,3577.508874765154,173.90625,6241.249996792384,35.1875,4650.076588330965,992.125,4099.905911649071,-277.375,2589.87926540505,309.875,7190.118913090033,130.4375,3581.3145014915613,127.65625,9240.54961707289,101.5,3711.0474515290152,1039.25,6952.017652271893,-205.875,2558.625018320387,-20.625,8980.098947638327,147.84375,2202.113815595356,170.9375,10658.86316914678,48.5,3587.908356549816,972.25,6511.690866242039,-212.875,2767.089216916397,130.875,7721.60865586796,202.0,2330.5516916601528,155.9375,10241.552058091282,78.78125,4429.9495111003735,-84.875,559.8818932373148,47.125,2458.9641588227755,111.75,1020.7124656336866,154.84375,2523.612739077836,-21.375,697.1584625284269,-109.71875,2140.8545495078447
A,15,955.125,2684.627298970008,-235.625,2840.4271438244987,163.875,2587.582749280687,-22.375,2697.5104002348166,212.84375,5954.8221326783505,-3.53125,3678.714797524189,1002.375,4037.3728908010216,-333.0,2318.0362378530667,180.375,6537.268723203521,-62.375,2692.414433993214,-30.875,7268.183957968799,-75.0625,3487.9456071724726,1048.25,5697.760958262465,-282.75,1964.4959754349206,-61.125,6911.206423944737,-55.84375,2477.6906221996196,75.125,7001.343619932891,-19.1875,2726.985703545904,989.125,4481.697249299086,-329.375,1852.3354473137417,-29.25,5689.469609506672,90.65625,2903.302737932429,3.6875,6779.538532587874,70.75,2996.5998231328786,-18.25,688.6573440398353,-42.625,1735.4718693701145,130.125,1166.7506093313173,122.125,2478.928343937154,24.875,942.4575172786305,-28.53125,1560.702145357479
A,16,986.625,2449.3139058469005,-227.625,1676.1340517318417,195.375,1958.1203000262778,44.40625,1934.5171855558526,244.0625,3604.2823569462134,55.46875,2684.6464383645452,1032.5,2998.557444839101,-181.375,1494.2645714113014,38.25,3630.360166360908,62.5625,2389.3637350963854,201.53125,4731.884376125799,53.5625,2756.9200765698215,1031.375,3746.5935340486294,-176.75,1999.1669358760414,-158.5,4824.87883267549,72.59375,2091.0039732652203,232.5625,4884.492482192367,17.3125,2351.3131628610745,1019.0,2984.4753307742385,-227.375,2268.9522051764334,1.875,4269.829854265273,47.46875,2362.023113037516,195.46875,5169.942202193699,70.46875,2558.892777945852,-30.0,788.4992073553403,24.5,1406.66796010999,152.375,1222.596973403337,92.5,1801.6036259399568,37.0625,1035.3295953916077,-21.75,1329.8181031629852
A,17,1016.875,3390.0741488019107,-201.375,2217.452504423714,187.125,2811.131931157803,-7.34375,3246.824425586628,260.0,5644.375901062934,33.09375,4375.685427445732,1005.75,3440.42205804753,-194.125,2343.9136042898426,178.5,6424.348040852084,-66.96875,3296.8845946246643,103.96875,7317.022240486456,-31.34375,3385.5306139637755,1071.5,6008.861019361323,-229.0,2784.4487784838134,54.875,8257.12055118944,-68.625,3326.958744014569,100.0625,7676.540928119497,-27.9375,3116.0062473611556,1026.0,5530.84017125789,-287.5,2251.75970076738,19.625,6985.077691720759,18.125,2912.048503094514,75.5,8142.938543609426,82.65625,3684.0985719828313,-22.625,595.7714405499814,-89.25,1703.729567008802,71.875,1468.425512028104,177.5,2569.1271134375584,17.0,1220.62320148357,18.1875,1300.2009565231638
A,18,1018.375,4457.520707677643,-292.75,2179.3880878586083,200.375,2531.7753374608496,72.5,2428.705069064583,503.28125,6660.347378489236,97.9375,4961.344247892273,1001.375,4814.366376728613,-261.625,2011.855824698927,71.375,6063.391964022695,43.5,4218.062581031723,627.03125,9012.100623898594,97.03125,4181.439790045223,967.875,6548.550334568331,-166.5,3325.2201054967777,-263.625,9345.24378276859,89.78125,4002.2027039367254,595.6875,10227.783986638735,88.125,3775.252795757524,950.875,5856.456030260536,-147.375,3240.847591198173,-145.25,7076.197456084729,171.0625,4253.211109984284,446.9375,10086.485401074735,233.4375,4130.364125424507,-49.0,754.5104373035538,-22.625,2421.661332510184,19.0,1420.9806472996033,255.1875,2687.0370698678034,92.53125,1015.2042277411168,60.40625,1394.1204408912945
A,19,984.0,3035.945486994126,-155.25,1971.0843303877184,186.375,2233.082367351236,-19.65625,2376.5407319433716,399.59375,4507.978772821689,-3.9375,3304.3312290225613,1043.75,3883.8296741103363,-234.625,1780.9765886656119,127.375,4688.326792084251,-2.25,3554.4349410278983,289.6875,6789.532878986871,4.0625,2946.3486400278143,1063.125,5428.00117302631,-173.0,1879.2756583322202,-55.25,7643.191508623868,37.21875,2963.405354638214,375.71875,7238.388331641819,50.84375,3065.9546138741093,1050.5,5053.594735433383,-296.75,3458.9913902032195,33.375,6830.202969851994,179.96875,2765.689058403608,340.125,7110.203512162996,236.125,3489.868924383121,-11.5,886.0376684994832,-57.75,1450.85593271696,34.875,1463.9386033488563,173.25,1800.4787210628178,19.59375,1404.9679902798275,9.75,1538.5344284415607
A,20,975.125,3840.5483637593993,-208.0,2942.8691782000774,49.125,2343.100773414366,3.6875,2593.492317772264,167.125,6982.634843622785,16.40625,4363.9515125297785,998.125,5025.43689487541,-169.0,2430.297924123707,99.625,7103.032124337817,-29.125,3404.6852621608064,133.90625,9177.716659657834,-20.0625,3803.9318222851666,1016.875,6237.9415462454435,-173.625,2678.4803264864577,-75.75,8466.264166531777,-48.75,2585.0127417480944,107.625,10434.747016429052,-33.1875,3383.4980552445645,999.75,5145.470234827912,-272.125,2464.333476698111,29.0,6410.900092810681,30.90625,2658.7860994184803,72.375,10883.909946998598,76.71875,3838.30048031006,-32.625,759.0303744745661,-26.125,1954.2351405025445,66.125,1619.2096789406244,55.96875,2623.268970725922,-20.1875,1294.7129372350266,9.59375,1210.6640187149108
A,21,975.5,3539.912534230189,-211.5,3262.0418069056072,313.0,3412.6750504552874,22.6875,4341.588825227897,281.28125,5162.705209204612,30.84375,4495.458000230448,1027.125,5012.927660995619,-218.0,3185.4167702201858,233.5,7684.82561610867,32.21875,4810.358814152894,219.46875,6661.807191860436,29.5625,4014.870125059309,1068.875,7304.953232867066,-136.75,3267.4083671160543,-24.0,8928.84278966205,-59.125,2953.951143701432,317.03125,8141.199709979693,30.25,2939.6818918039417,1051.875,6688.341534668741,-247.375,2976.559105641109,38.625,7867.644603652036,61.84375,2135.6721147769704,212.34375,8230.871250243557,129.375,3764.181474354684,-42.375,745.366258543409,-67.875,1833.4867014448182,85.0,1808.0868341979597,75.4375,2877.318998841413,32.59375,1465.2486107179686,-32.59375,1325.8806474230391
A,22,932.75,2405.385507044557,-318.875,1859.9368898903533,261.875,2142.174359004187,48.9375,2709.766778911748,371.875,4992.411176913917,84.3125,3884.4136256124616,1015.75,3253.2634288510976,-470.625,2628.8211444248163,404.375,6288.397280657052,151.15625,2263.373838285655,326.5625,5119.0454062348135,110.59375,3052.0580439616374,1147.5,5875.921268192759,-226.375,2775.655032487827,206.125,7280.648527732608,133.03125,2975.42447060473,493.46875,6400.517986774464,105.65625,3056.976075402936,1117.25,5186.515346309119,-346.125,2155.7372252607693,333.875,6083.2981995275395,-33.78125,2307.395998934391,417.375,7158.226005573937,278.46875,3273.2054146544847,-39.125,621.3965999062112,-33.0,1256.964199967525,36.75,882.5120041676487,165.625,1898.9745546939275,74.15625,638.2758078103365,-47.78125,1406.6632667054462
A,23,915.0,3200.8990924426216,-266.375,1777.526894135501,392.25,1957.220462160561,30.8125,3680.2368422214013,379.1875,7064.408367998254,140.03125,3981.8796871293634,1039.375,4684.948997521211,-255.875,1656.4348717577157,430.75,6142.492363650117,35.0625,4984.946570284756,471.65625,7764.648505443497,138.375,2954.2445073783247,1119.125,6739.689513202741,-235.75,2810.660765282783,178.875,8456.117976611667,83.25,3795.152780192123,523.34375,7100.2865153869625,127.5625,2783.0622627950224,1022.125,7306.694805750067,-305.0,3071.5873746322113,166.0,8438.625480491477,148.84375,3854.211415041466,308.1875,7136.1774713318155,188.34375,3077.4534176955362,-32.875,570.6125957030741,-76.625,2125.8085777828164,79.75,1495.3681611897453,168.0,2136.6569243797658,71.84375,831.4248729355753,-31.125,1150.6135252007948
A,24,985.875,3802.7653075590924,-219.125,2177.1138542517706,174.625,2312.284716330366,16.125,1787.8348244105214,-4.625,5874.982456090826,-9.5625,4466.13387714629,1011.375,5341.318948478456,-184.125,3461.4607443065133,-39.75,6897.64553579698,1.75,3016.1586600343157,-51.15625,7122.155652036533,-54.34375,4031.1076456212304,995.25,7142.830702004633,-174.0,2699.7051690879134,-209.875,7904.947626921699,6.90625,2660.011294141613,-34.0,7826.997604445782,-41.3125,3425.208437430305,1014.75,5793.611778286495,-274.0,2333.3268095146896,-80.5,5616.321905838376,107.71875,2303.001278690144,156.8125,8630.671850432256,106.15625,3262.6237343334487,-38.875,1122.9159516076882,-47.0,2759.2687437072886,61.875,1308.8212194089,56.9375,2022.4987629399802,-5.34375,1387.1510058699223,-1.65625,1663.5096296943814
A,25,993.125,2651.3500776726937,-245.75,2492.41207217025,232.875,2484.69208039447,-0.375,2905.315137274268,216.4375,6110.20277863949,14.8125,3801.7316320781706,1054.25,6064.385701577696,-235.0,2388.2623390239187,143.0,7785.318490594974,-44.9375,2369.1817935932545,129.78125,5027.9578964424945,-13.5625,3319.8030244419247,1084.25,9181.675170550307,-251.625,2711.7760525852796,-9.625,9108.963726564894,0.1875,2258.084910902101,200.25,5587.388505599016,8.15625,3005.281217180172,1052.75,7449.679821139966,-354.75,2071.2333131494383,33.125,7689.093459854354,62.28125,2539.8659565316507,174.8125,7143.196305915423,97.25,3862.872312153225,-17.375,826.7125312797672,-18.25,2074.1306461985464,72.375,953.8387491473599,87.8125,2209.0380604108545,24.25,1607.1342118815094,-99.28125,1782.3079881570518
A,26,949.5,4527.235221412733,-261.0,3277.9380714101358,127.875,2239.70276697043,38.875,1977.9108888863016,315.65625,5578.896718938785,72.71875,5378.778864867791,997.75,5811.545486142219,-296.75,2514.773635439182,160.25,6541.040585220367,47.8125,2364.702748728421,230.75,7188.215977382705,54.59375,4495.757659028224,1049.625,7161.301827138345,-273.25,2812.3334506242322,-20.875,8136.955802655868,54.875,1840.0033245554205,273.75,8524.366222775743,52.78125,3527.4683532809245,1003.625,5937.887701815773,-320.0,2349.778712985544,27.875,6229.116348598331,95.375,2265.4612768429743,209.8125,10020.664191551563,129.1875,4338.642691250773,-30.25,871.6243098376731,-24.625,1940.2613507914339,103.75,1337.4109082477232,73.46875,2304.5973480249077,34.65625,1590.5254754595846,-22.46875,1379.657611156999
A,27,972.75,5820.3702148145185,-290.25,3601.068166183473,316.25,2396.11392414885,48.28125,2455.893870294162,323.0,8129.2927390702325,60.4375,5422.214411206343,1081.0,6101.321742049013,-261.375,3945.5721523468555,358.25,5826.820311070181,36.1875,3536.4661071956775,402.71875,10098.919577838435,106.375,4401.610257550638,1166.75,8447.70101492116,-272.125,3198.4758064389043,251.0,10900.516905748094,65.1875,2924.2509985197494,423.90625,9321.324561721953,98.65625,2770.3986808013638,1139.25,7456.3874253890535,-414.75,5505.802433569515,222.375,7575.356087958836,154.4375,2384.05211689966,367.59375,9284.832947673907,253.65625,4579.112022334236,-21.125,1446.7084137361612,-87.375,2362.516054839628,85.5,1269.5986570566306,149.75,3504.8781540875284,47.09375,1262.1982896759675,4.09375,1234.1051251659794
A,28,952.25,4563.425899201169,-213.375,2288.609317768107,39.375,2110.2057030950796,-9.53125,1480.1360576053262,345.90625,7343.29177021184,19.40625,4650.537266403844,1029.75,5373.0632731710875,-211.375,1986.1953854983653,72.5,6400.710331674134,-16.125,2509.109126637381,212.1875,8276.55998678459,16.78125,3768.3146907335695,1042.375,6235.481124931339,-83.625,2183.139564795389,-207.875,7153.285642582365,-110.875,2391.1389512897404,319.40625,8160.760147113193,41.25,2601.6190151519113,1024.5,5364.595208401096,-219.375,2632.6807837971924,-86.375,5903.776237237908,74.84375,3089.0314633936537,322.125,7423.636468865849,144.25,3170.602022881459,4.375,727.5145080168505,6.875,2257.4971172462215,126.875,1374.2857178822023,56.8125,2579.139408764821,22.1875,861.0159855332246,-26.03125,1122.1394043404043
A,29,938.25,4501.546949383067,-228.875,2592.092539701274,90.0,2933.659319007577,145.03125,3354.578331217418,459.6875,7420.427171150172,68.4375,5201.799628118499,976.125,4762.856861629898,-229.875,1937.8598980253964,127.75,6430.5784294649575,384.53125,4535.265365612407,554.75,8806.314098418248,249.625,4075.5040159929913,1095.0,5893.096130218817,-232.5,2125.3843770010167,129.875,8561.751105023726,343.65625,3099.126395145241,663.40625,10398.844890357339,67.6875,3222.2583252811605,1049.125,4761.293651348864,-254.25,3083.827643935374,197.25,6801.667107224523,135.21875,3128.1758835459423,598.09375,10312.68520245629,256.8125,3283.766857945879,-32.0,735.1795699011228,-150.0,2246.934801012259,32.75,1172.48003714349,158.71875,2994.5003259556406,4.375,592.5914881897984,88.53125,1251.3977681071026
A,30,1020.875,4184.085411935923,-273.875,2846.9452022079736,180.375,2054.346455536407,22.875,1709.112520981284,439.21875,5850.027594669827,42.4375,4028.6227868334545,1053.25,5890.326089233091,-309.125,2789.4110909607784,230.75,6263.142362265127,73.75,3061.862351984491,455.53125,6657.172461828178,74.0,2553.4136831896235,1166.25,8455.396616214995,-360.0,3447.759707404215,84.0,6685.753066222233,107.5625,2392.1075035611902,485.59375,7539.0536618471515,50.71875,2735.0270249393216,1073.625,7045.509694789654,-322.25,2762.7200251744657,80.75,6115.620118802344,166.5,2821.530380396426,355.71875,8586.484944501355,178.84375,3598.0233471777165,-49.0,1086.4722730010187,-56.75,1335.9189487016044,99.625,1728.820511034908,201.9375,2556.3366970322495,33.875,1073.7795324809465,32.3125,1756.3887567516908
A,31,1004.25,4008.9146832403408,-339.625,2962.026900515085,317.75,3200.01717768827,80.03125,3438.472594084972,546.3125,5692.313992555554,152.28125,5133.9095497143735,1043.375,5673.420935324207,-286.875,2792.0940590128766,437.0,8343.10206098427,111.75,4551.245701728264,858.5625,6152.205391856952,235.0625,3748.503909374212,1132.5,7661.2567343745895,-259.75,2757.6439105693107,137.625,9147.866464885405,25.03125,3652.6502833933387,980.3125,6077.5287095038675,172.84375,3566.9622852415946,1097.875,6482.3868277336705,-343.25,3604.9684377952603,93.125,6825.140308768385,230.78125,3016.3451470112695,652.59375,7675.392127032399,299.53125,4765.056702078522,-17.125,523.3223044883525,-116.375,2296.819618379946,25.875,1084.9092055904955,257.375,2351.4270102163496,73.4375,739.1631221142935,-23.03125,1435.4329374002248
A,32,954.625,4349.68959919843,-175.25,3911.725762051834,143.875,2569.4584029275507,117.1875,3487.8859055083426,684.25,7654.345930580875,173.8125,5413.8186063391295,943.75,5322.557368173687,-103.375,3797.323018835111,7.5,9369.16136855375,217.03125,4802.778053405491,653.09375,8119.857335413039,194.0,3892.507530500102,922.75,6280.740994301548,-111.75,2885.290615778591,-108.125,9132.736089714572,147.03125,2773.9175420825754,635.6875,8396.02729880887,42.25,3535.103622950818,971.0,5105.238779920093,-147.5,3445.5723399748845,102.875,6241.702190458545,83.21875,3167.2791431919036,614.0,8051.610708423502,171.34375,3917.75234197951,-22.25,792.0005918558395,-15.125,2376.8093601244086,35.375,1120.9750708088918,82.3125,3148.584329082477,6.0625,1328.8501123504298,-33.125,939.5280647085535
A,33,974.0,3032.4620360360655,-198.5,2252.8607924148355,250.0,2403.725233881776,18.5625,2249.2658237953447,93.84375,6424.757680787341,19.34375,3093.9177591826738,1025.125,3323.082339391397,-193.125,2074.005360257056,156.375,4818.792209607611,5.84375,2516.318989483634,109.9375,6204.620515881189,-2.9375,2137.0763167453215,1047.375,4783.099424993693,-163.75,2441.8175479548017,-51.625,6462.3037965864,18.78125,1756.5835401137167,172.9375,4982.2772211704305,6.15625,1217.0508696582642,1022.0,5709.205198624411,-259.125,2411.66803983778,51.875,5920.374015581701,34.3125,1303.0313800303313,180.25,4533.304051682393,69.375,1821.793480165905,-21.0,765.5017962095191,-99.75,1681.2584386405322,63.5,1199.3422155498404,60.21875,1975.59307130756,33.59375,735.5873868623207,-4.625,1186.7343781887334
A,34,929.125,4673.975741740109,-228.875,1964.293189514997,194.0,2109.996208527399,61.46875,2627.351339566796,418.84375,7138.256435876757,90.96875,4389.491360655974,950.5,5333.6367283496165,-139.75,1970.3915695871215,-14.0,7468.110537478673,92.5,4050.944187778943,483.6875,8740.088698911684,147.96875,3579.0123243394173,944.125,5991.245820726687,-117.125,1572.4809170145754,-224.375,7814.021266887811,65.09375,1966.1906914032875,422.0625,9405.166761338884,66.0625,2613.538536848797,934.375,3911.207979560151,-168.25,2435.858973237162,-37.375,4383.0981747361075,13.6875,1740.8986263834406,333.125,9944.802218841509,122.0625,3189.1440753897823,-64.0,652.0644139960407,-44.375,2423.78739978881,44.875,1026.0929462651031,33.34375,2813.952209630778,20.0,686.9949508548079,-11.09375,1180.2763013214055
A,35,972.375,4623.694016625127,-316.625,2872.7457439486357,205.625,3143.662968477219,74.96875,3121.4219464489956,505.8125,4941.261709052026,156.0625,3901.5823147274173,973.875,6662.53832892352,-243.0,2906.6671636085202,97.0,8615.168541589886,101.59375,3374.866440499674,439.625,8067.471253241315,145.5625,4481.516567646911,941.0,7477.203220456162,-184.625,2342.335396431305,-205.25,8429.970785091726,77.9375,2826.688598624502,370.71875,9824.64384607139,114.78125,3522.566773092944,960.5,5416.915058407322,-221.0,2743.628436942583,5.5,6449.415380482172,105.34375,2249.486838833679,223.6875,11433.74472077472,157.21875,4196.722402172729,-64.5,764.4656630614616,-85.0,1962.5401906712636,32.625,1003.8122879179155,116.96875,2220.610888420895,44.59375,636.0653887069611,13.65625,1373.0809473901884
A,36,742.75,6424.7649324702925,-135.875,2165.428245030299,-131.875,2434.2318058013702,52.34375,1663.5728231988937,1026.5625,7074.192550821172,635.4375,4322.0378724733255,588.875,5319.997343455634,35.0,742.9152037749665,-616.25,4643.411347005561,-2.46875,2611.88861248397,1040.40625,9350.06753270857,261.8125,2371.2280763021827,166.0,3907.6922857359177,48.125,1211.578922057907,-1008.21875,4659.028464540482,-11.25,2069.549800077302,998.875,10620.536805965836,108.34375,1021.5457836464979,71.125,3994.5958161464846,117.125,1052.1559933655276,-923.84375,4077.701620623551,38.3125,1794.2376068524898,615.625,11050.611976124897,97.28125,1504.6829656603538,-73.75,430.9790453142705,116.75,1464.6031672436052,84.875,848.0110461397304,112.8125,2890.7498750054024,84.65625,507.7428365678215,24.71875,827.961700290803
A,37,991.125,3883.4109664539756,-239.0,2628.8432817495986,221.875,2416.193076799741,40.53125,1609.0390568669977,410.9375,6256.077065229755,98.59375,4099.8202312675785,1030.5,6055.545206668017,-258.875,2438.418182833904,208.0,7099.462092299669,38.03125,2642.0528297657934,467.96875,6910.5130394040525,116.34375,2556.955643550732,1075.75,7251.626571845795,-254.75,2633.486365542833,64.25,9174.800648379234,168.34375,1771.01350943067,406.25,7183.387171105286,68.59375,2471.905652267282,1032.5,5569.146590816226,-305.125,2724.647543146636,99.5,6780.912751982582,92.90625,2181.4066757395185,299.90625,7719.656138550534,143.1875,2594.813847339294,-23.875,764.5210817073654,-37.25,1781.7661006709045,41.5,1109.7791446950155,73.0,1964.2498886343355,16.125,912.3036346935158,-4.46875,865.6845912475499
A,38,947.375,4496.938859866232,-216.625,1803.5451503566524,127.0,2214.6792092761425,91.9375,1467.1699359971053,529.5625,5716.299775299905,86.21875,2569.6283624093267,1001.75,5129.499092260374,-249.75,1836.9352023138977,168.875,5168.691201297965,297.1875,2259.7166780027424,624.625,7321.513004282311,155.625,2100.4062218711406,1052.75,5357.429928379838,-254.375,1819.3317068019785,62.25,5509.94763473302,258.90625,1874.8087462354492,696.96875,7809.036162054408,65.0,1784.8565068374544,1019.875,4608.134924714662,-213.125,1759.0915935149596,30.25,5693.193386624066,108.75,2417.9689048869095,615.71875,8235.93356970832,201.875,1601.8852711336726,-28.75,1130.9794151530787,-4.25,1806.3709302078573,71.875,1096.1416351799617,98.78125,1999.3035777236125,27.53125,532.542133566385,23.53125,962.163706976852
A,39,927.875,4772.833381166265,-163.75,3801.3287068471204,192.0,2926.099109736374,33.0,3646.5343478431682,274.96875,11139.857883082415,26.28125,5914.008022453845,987.625,4084.2202878119833,-185.125,3010.8243446562938,88.25,6136.739112712875,49.96875,4197.576290881851,306.90625,12296.429215831762,71.71875,3212.566703922027,1022.125,3404.8643121826453,-204.375,3027.584079654106,-9.625,6274.37015638821,93.8125,3196.25165660399,181.46875,12125.726947240048,6.3125,3134.9924485305783,1029.0,5141.258989780616,-229.5,3212.8586570218117,67.875,7918.8063168873505,41.40625,3554.910220907265,169.84375,10643.526498268135,72.25,3911.119884380943,-29.75,684.9298777977202,-105.75,2435.847478291693,24.0,1997.8485928618315,48.71875,4532.739577468403,17.28125,1025.9439627233241,3.84375,1238.6019868528945
A,40,999.625,5990.817419966577,-196.875,2912.0054488917085,165.25,2699.8510028333044,108.90625,2051.8333929588284,567.03125,6147.990192353387,70.34375,4500.1675427794835,995.625,8387.35580259804,-268.75,4162.55611824033,121.5,9632.33760569053,157.84375,3091.2623949344606,557.71875,8676.116827368593,122.375,3353.7003607023394,1078.25,8657.846379874154,-233.375,2930.3055488080076,161.0,8232.11764979097,146.875,2442.5728846597394,612.46875,9769.523264291018,52.25,2832.2125847118186,1048.25,6303.76283956654,-224.0,1948.2060979270134,147.0,6435.746887502646,-12.8125,1675.1243878720618,535.6875,10448.689332990227,200.78125,3022.0514114419757,-41.125,948.6512712135055,-20.5,2021.735825967379,88.375,1543.6049881284396,36.59375,2834.7828274333356,24.4375,746.691575279747,-10.59375,1048.4822321865724
B,1,39.75,893.5837607633657,9.25,1270.9683070399512,116.125,1712.867036396871,33.875,2657.227828842495,34.65625,1764.368063383017,-12.53125,1068.5521157264336,27.5,444.44769096036487,26.75,1269.726126965969,58.875,1932.1830230014443,27.125,2005.3771894272159,16.53125,927.9103534412349,-33.4375,834.4506402980047,44.0,760.5064102293944,97.25,1628.9863220727177,76.625,1743.8939501514992,9.875,1491.0983315579829,39.9375,959.0332351351282,-30.78125,697.7367310801671,19.25,687.1960691825878,17.625,1696.376685578707,79.5,1063.740922405451,18.6875,1016.2076693982141,24.03125,999.4982017359698,-21.375,697.0826148133376,84.25,1728.6147452512373,-219.125,1572.945242014165,792.25,3135.4973987391536,-39.8125,2148.0779408214567,-6.96875,4787.350758015694,38.28125,2912.4108595197276
B,2,21.625,637.3028003822045,5.75,1356.2952987826802,56.75,1889.7178195434365,7.78125,1435.7347799640563,8.34375,1004.8589020782657,23.15625,645.6093589283984,7.625,411.5353683160173,-16.625,1506.96055335732,-7.5,1815.2872362246146,15.28125,1263.6550220089491,14.25,1061.9249031828945,20.0625,878.5917331694795,21.875,736.1895030323375,14.0,947.2676496112384,6.875,1642.7499001293531,25.0625,1430.100038841252,13.3125,1080.5226871027512,5.375,741.9468372969859,8.5,654.5148966983104,-23.375,1095.3844573367837,44.375,1669.2765976239527,19.1875,1528.3357050542756,9.71875,851.0313314728415,7.1875,792.7988962175401,109.625,2409.76282222442,-268.0,1465.6258049038302,710.375,4663.965786685726,18.375,2676.218177648265,4.96875,7274.867161520782,1.53125,3160.612747003884
B,3,17.375,622.7050741522828,44.0,1283.1847100086566,22.875,1043.279557153786,-29.40625,1835.0255764459898,2.34375,1243.5464559420116,12.90625,854.081171470802,5.375,475.12904497094263,22.125,1963.743614725456,-6.625,1544.357992621853,-55.15625,2322.3730873474956,11.0625,881.2645012104765,-23.96875,1047.8135713348236,24.125,569.8179396745946,14.25,2551.7697657704152,74.875,1519.0757829598233,-25.75,1981.2207253357715,38.09375,1268.2521525552154,3.21875,1841.1571384318172,-12.875,417.02486061984365,-74.375,1725.9625892165218,-6.0,1228.8934046531456,-12.6875,2045.4935137623268,19.875,1829.415664050956,18.59375,1689.9192632226361,94.0,2742.896279482693,-287.875,1802.7946317800595,713.0,5428.974396697778,-49.84375,2313.532959963168,52.65625,7332.221289492423,-85.4375,2065.994069714081
B,4,16.5,456.9625258158485,36.125,1152.5235287728403,62.75,1218.7655383624858,-8.21875,884.4225070058075,28.59375,933.7246602778238,33.21875,892.0966082204536,0.375,277.9808615264727,28.75,1324.4374041456244,-4.375,1339.9792384119241,-25.96875,1190.6621184338726,40.28125,588.494543006507,-30.25,882.7490795803755,-14.0,491.382742879723,-11.125,1560.3328921659634,-41.375,1346.1049771005974,-14.28125,1201.0911506411317,37.9375,732.8603182692798,-12.8125,824.4398263935034,-23.5,611.229703139499,-45.875,1398.0282487757534,-28.75,1702.8856207919544,-0.6875,1494.4330329070453,13.5625,921.0508922387243,13.46875,781.5885660137548,101.25,1380.3620675388033,-280.25,1433.3854811250183,722.5,2650.49122805566,-51.65625,2403.1874485952894,163.625,4835.159386915286,-13.5625,2305.997126211078
B,5,7.875,562.567759807652,35.25,1388.7067500015978,23.125,2171.507940205377,-16.09375,1209.7776748067959,18.28125,791.931193127558,6.375,779.8022485701102,10.0,353.9774004085572,14.875,1617.8597696880283,-39.75,2272.626220367089,-43.25,1061.4861044780566,32.65625,553.6455663020679,-49.40625,834.6642610720418,-9.625,563.2600282063338,-21.25,876.6341525973079,-58.5,1467.7986067577526,-44.0625,1078.8865770291843,46.15625,831.6779390701291,-21.8125,549.2908176401186,3.125,510.6689087608526,-72.5,1273.7526251199643,-33.625,1292.5389198685664,-0.5,1222.4854549236977,15.09375,729.1540200540195,32.5,575.1485134293576,133.625,1716.3230638125794,-262.75,1769.9193307888356,692.875,4058.546012351591,-80.875,2487.1455369308405,104.8125,6859.813050648228,-49.84375,2359.854207750118
B,6,16.625,1062.9981699772582,59.375,988.8281495664452,64.375,2564.337411374525,-14.78125,1740.6018128504973,0.78125,861.3518711295852,17.84375,945.0856478837976,9.625,462.8734809588901,56.25,1349.9325677603308,-12.25,2839.999284771037,-9.8125,1755.4323441374065,11.09375,1191.2636242498709,-15.8125,1084.3317192371298,-15.625,655.6213536600222,46.75,1751.5128996099343,-41.25,1948.8803035332878,29.625,1614.7568654057488,22.65625,2120.487099250061,-4.34375,1494.4314472688059,-2.875,622.4582189793946,-16.0,1415.030035016925,0.5,1648.2850936655345,13.0625,1512.3799319594762,-20.46875,1775.2154796033742,6.1875,1287.4937970117564,134.625,2577.5586529456514,-246.0,2600.288830110994,654.125,4670.894559329615,-58.3125,2731.280405294145,70.875,7233.036044557984,-56.21875,2149.6410126805913
B,7,14.375,535.7908727992667,64.875,1239.2323165472244,66.5,1365.372751302735,-14.40625,2045.41749802111,0.21875,885.4851330758961,4.0,746.3113458872242,10.375,281.5934292113365,1.625,1603.0629617625752,21.125,1153.2949468262661,-7.4375,1813.1448497276078,21.78125,861.4453238009,-0.5625,884.6505997249706,8.125,630.8894391056169,7.625,2050.8135847450885,0.0,1218.9286279352043,4.875,1312.691027765102,23.75,1102.2346902996658,1.96875,1264.9956641322678,29.0,794.6433162117454,-60.375,1573.0922920715745,30.875,1533.1318385497707,12.09375,888.0841865842098,-4.625,1149.0703511426095,8.125,1101.7708118637922,38.75,3044.116199736797,-289.125,1817.0817907774542,683.875,5695.413899303105,-52.28125,2444.7014801706237,56.78125,8030.534472928837,-1.09375,1878.3735045141948
B,8,12.875,396.4173739570454,27.0,1422.9950808066765,63.25,808.6893331187199,-32.5,2184.07378824526,3.90625,1165.2487759963267,-18.15625,1183.3897844057713,5.5,240.22645566215226,-76.625,1518.292827281681,40.625,1692.7838342136304,-32.09375,1463.3724824735968,6.65625,1157.2027050547097,-16.46875,1269.313052018074,42.5,716.5066294180397,-54.875,2024.5691478373863,62.5,2111.5998082023025,-1.1875,1017.0199247525832,22.84375,987.0405294798879,11.625,943.7655876196164,18.75,700.8890336565411,-60.25,1405.0280913561835,23.0,2108.635577808551,-9.125,1170.0104366521693,-1.40625,908.3135079425701,23.34375,757.1980260050454,52.25,3446.3724316301045,-267.75,1669.77751137689,669.375,6346.106413335267,-79.15625,2685.214832063896,30.84375,4720.807611716023,-69.84375,2366.282396890941
B,9,35.625,585.4300636070888,198.25,1183.809079835089,79.875,1468.639330936973,-126.59375,2699.5808454667435,39.78125,1199.541520081084,-152.4375,1061.3711632100008,10.625,320.00251463855716,68.25,1270.1617761135783,-11.5,1822.4880658045474,-49.5,3198.019172081368,-22.53125,1079.9698776000364,-66.25,1071.129602335777,-0.125,819.516006173766,20.125,2327.450640588324,-2.5,1556.2225901200638,-26.75,2656.1150906916664,-26.53125,1691.2083325313406,-12.59375,1955.555912959519,1.875,755.0483324761402,-101.5,2067.3649290824296,-5.5,1918.327331296721,-12.0625,2237.199364404914,-39.34375,2397.0177383753207,23.0,1515.5405801231454,65.5,4530.417061375255,-260.25,1706.261977979935,621.625,8139.337617974512,-101.25,3097.852290297263,-15.6875,7305.948062356025,-18.4375,2600.0205400330497
B,10,22.875,913.1249828884324,58.125,1168.980745938529,41.0,2443.3890398379053,-4.03125,1200.541426929299,4.25,1392.920066802112,-3.6875,786.246956969469,5.5,331.7811778868717,-4.5,1750.1339234470029,7.375,2977.230442773115,-48.625,1393.9561674869838,-8.125,767.3204900007559,-61.25,608.7599588507773,17.625,696.9597257912396,-2.25,1033.7494558644275,34.125,2037.6643453657916,-0.96875,1566.3455773785802,25.59375,1406.0793643002296,9.34375,899.6281735172246,7.625,619.3103901720042,-68.5,950.6543798878749,13.5,1637.1596592879998,1.375,1795.3709531389327,-2.21875,1727.1653390450022,29.34375,939.0889404555553,97.875,1717.5956987530565,-195.75,1392.396113719081,691.875,4181.30129079154,-157.71875,2199.598418381964,151.71875,5104.557848349692,-115.46875,2675.1151024812816
B,11,6.25,609.3217027974631,23.625,1351.7075716940406,38.875,1835.6473611167805,-18.6875,975.9870144339781,-0.90625,945.6026636283009,18.5625,680.0109804949843,-4.125,397.6700697500379,-19.25,1497.203205146182,2.0,2539.248707787404,-30.09375,869.546087025258,21.9375,678.8481023717677,-8.6875,863.2376352104616,12.0,668.4990650704008,-24.375,1440.5698037148356,7.875,1803.21809118448,-6.40625,1011.2945558594378,20.96875,836.7981194848836,19.6875,813.9813203285134,-6.125,449.9577584340557,-48.875,822.2674348257992,7.5,1521.981520912787,-13.75,1250.57131943764,2.15625,948.8222011188068,13.71875,1073.384315913195,127.5,2053.022345226666,-233.0,1869.969251084092,669.625,3568.0296886902443,-86.03125,2666.5550046405265,74.65625,5314.813047096382,-49.6875,2678.262898287573
B,12,2.25,645.9364810103235,58.375,1189.4351009512877,65.0,1421.627588364829,-40.90625,2912.9742356328757,-2.96875,1551.0717360178535,-8.03125,799.0348664316455,22.125,365.10407334758673,28.625,1590.421362210342,49.75,1898.312128576331,-94.5625,2380.4353453924664,25.09375,1271.4384412785928,-73.59375,1171.0514201822812,62.0,1083.0023084001252,-13.0,2944.3892405726524,79.125,3523.958815646829,-19.75,2294.971350583706,57.1875,1059.1055907433167,7.46875,874.0450497677093,8.75,882.6660962674391,-59.875,1362.3936598410166,10.125,2455.6956212802515,23.625,1480.1092178873153,23.78125,1332.0593486772418,26.1875,935.5928079799193,90.5,3526.350202404747,-281.625,1918.1884316654086,631.75,6827.507153969155,-103.03125,2568.011420393889,33.625,6818.567741606371,-79.125,2753.9358170398596
B,13,13.125,448.03039447675866,62.5,1425.990795902975,69.625,1653.1118714034449,-35.625,2139.7691865888246,46.75,1420.1580897914148,24.53125,1408.1539773843758,-9.125,250.97257693819856,34.625,1402.79314561164,-50.375,2334.7061612492053,-54.125,1568.193900439292,70.34375,1263.7888374194233,-74.96875,1564.5828015076215,-66.125,882.9665816864192,57.625,1811.0306069680325,-86.5,2244.729994899164,-36.6875,1057.1149250879726,87.1875,1349.7755007199346,-12.375,1096.4142337068595,-17.0,510.41845577917735,33.5,2190.6258808842736,-31.5,2207.2901372497454,-18.28125,1544.276473675759,37.03125,1608.243538856425,-27.1875,909.6662999934372,97.875,3067.435571348647,-302.625,1847.0643219376525,625.375,5012.370857126894,-47.75,2693.728828223064,27.53125,4364.40594457292,-9.90625,2739.6458981884753
B,14,8.0,511.50268816497925,68.5,1658.8127531460566,51.75,1194.5613996358663,-10.34375,1505.8518064822772,-13.0625,1005.6538276632522,-11.25,983.2048998047152,9.0,188.68757245775356,6.5,1881.3805436434172,-11.0,1352.668843435081,-35.78125,2084.9592731989846,-19.53125,1191.9998947245915,-18.125,911.2837699503925,28.625,881.6343399476906,-17.0,2247.861428113397,81.0,2104.8679293485375,8.3125,1731.2768668944173,-10.28125,1246.605597070877,23.8125,1611.368215940649,44.375,803.1484043282412,-95.0,2003.7200403249951,44.375,1298.659447035673,-7.3125,1891.8665788960252,15.8125,1036.730993239688,38.4375,1358.836426356664,135.0,2545.8642933196575,-217.75,1931.0080107291114,686.625,3606.7762072763817,-125.71875,2480.4143206626663,48.40625,6452.549543878833,-116.03125,1878.4166784218664
B,15,14.125,408.67222119321985,86.0,2429.92880554143,54.0,1405.2476650042868,-5.125,2700.768105442413,-11.5,1729.1366884951576,-6.40625,1188.1632058395587,11.125,240.800195961299,54.5,1872.123593676443,-24.875,3247.5725910863025,-16.125,1975.0018473092628,-4.375,1109.6329277626003,-34.15625,1306.3911433165556,6.125,1079.5971398512502,44.25,2553.7321585279847,9.75,4366.590653759521,0.25,892.292342789066,-12.53125,817.3796159211688,-8.28125,1045.8216636446375,-7.875,799.5989522097938,-13.0,1581.0626173558087,-40.375,2633.1415380444328,-5.90625,1054.8124643560757,-30.5,895.1764490869942,-6.21875,784.4546566873305,129.625,3237.5927568758552,-272.5,1847.9117267878355,644.5,6694.180439008199,-38.1875,2265.096596139721,49.0,4774.130496750167,-2.40625,3381.2444903779046
B,16,-5.5,862.3889783618527,88.25,1326.354755523574,41.875,2485.568543487586,-39.875,1181.9714133070224,21.84375,922.4449546373688,-21.375,1059.1328041728289,7.0,313.65745647122753,73.125,1123.2988179353702,10.25,2540.905338161971,-36.90625,2213.473406766148,20.34375,1183.4001491828271,-30.71875,1195.667941841897,15.0,700.7824198708184,60.75,1744.330942653945,89.0,1908.9062313272489,-39.71875,2478.664297993667,34.4375,1599.1592505419057,-8.53125,2019.6058245418678,-8.5,690.2077585770824,-58.75,1204.0238525461195,-12.75,2086.3409207270033,-2.125,3011.234939252499,1.75,2246.973269756452,15.96875,1511.1550732050757,145.25,1897.2331004649902,-236.875,2362.3517380726776,627.0,2096.3492075510703,-83.25,2895.779364005483,46.46875,11313.570352635079,-83.5625,2962.208866892028
B,17,11.75,352.8497378488469,55.5,1267.2465229780669,65.125,1022.4628278695515,1.1875,2143.9697327256627,-16.40625,1686.8073181934378,-21.34375,985.08247146416,-5.625,313.0141520362937,26.625,1594.792654038449,-1.875,1901.2750943445822,-6.375,1727.907545088857,-8.28125,1229.7511748920745,-11.25,1296.1935137162197,25.75,891.2165491618746,-33.25,2442.410579222912,42.625,2343.907124733188,13.1875,1505.6495782032916,10.78125,1258.2263243941597,8.875,1109.8737751992342,40.0,797.7117273802611,-102.75,1913.7114300489507,39.75,2211.0372989843477,34.25,1185.9331768695909,-36.5,965.6303964250504,28.40625,869.2900788637459,169.0,3206.0305675398668,-211.25,2425.3219245081673,594.75,5860.264365837091,-82.8125,3057.22502276881,31.53125,3931.57923092279,-43.59375,2820.6080445909065
B,18,26.5,921.2039676423458,15.75,1255.5803190158724,86.5,2507.0081272305442,14.4375,2650.431119854608,-24.5,2361.5411678605137,-10.0625,855.9368017521796,9.75,424.491386838414,-9.0,1574.738390971656,-13.5,1735.6882640612628,7.28125,2578.9146001076574,-22.8125,1746.2436370231246,-3.53125,1731.9443911463893,24.75,687.4601352078533,6.375,1291.885002380243,17.25,1561.1577234539757,31.40625,1283.0872402962075,0.34375,1771.275486926282,3.84375,2024.0250756440587,9.125,632.1172631521781,-46.375,1205.943141020753,1.625,1791.6229679748471,3.3125,1673.7839137247527,-52.0625,1833.9553214551738,15.15625,1117.153193092128,168.125,4506.312737080617,-192.0,2238.0701508219086,709.375,7058.4597901649195,-162.34375,2255.4927622552764,105.0,6886.237788153993,-99.8125,2111.304017033963
B,19,0.625,397.0354006571706,52.125,1180.8240700354138,28.375,1034.5744822752008,-4.09375,1755.081396961673,-19.21875,940.3293550126134,6.15625,822.2708688965805,-2.25,276.4759257150611,44.0,979.3431472165413,-10.25,1562.4512592397882,-13.90625,1478.3864168277987,-12.40625,714.3610720153622,-1.1875,670.9944316786466,-0.625,704.8603474270631,56.625,1260.6280614737243,-19.375,1942.103012040041,-3.5625,1290.9470829951745,-11.0625,1016.3308374214324,-2.90625,705.706001080434,-7.625,867.2395051973821,-28.25,1127.0088453512687,-29.25,2057.6290816131072,-15.4375,1361.7282432973732,-35.03125,976.4705411703097,-0.59375,773.8882695266401,187.25,2471.6645074726466,-222.5,2170.928775892936,655.125,4313.564852227795,-130.875,2055.5442519865633,50.28125,4631.654606039664,-123.28125,2378.4465812055646
B,20,1.5,401.6848889365892,58.625,1450.528045014987,44.375,1435.8775572363404,-16.15625,1531.6351170680102,-21.5625,1100.938858926212,26.90625,876.1607429353004,-3.25,422.0490937083031,72.375,1084.9075349424945,-20.0,1672.3635968293497,-28.03125,1032.2904594993784,-18.09375,1257.740915276647,9.3125,773.4444242114297,-9.25,486.1619457547043,66.625,1639.5876339418396,-8.25,1544.5157614929024,-15.09375,845.3186662205783,-4.09375,1069.9700743296223,25.5625,796.9417300491612,-16.625,478.22913898569584,-38.375,979.1990907752111,-17.75,1125.9284779682944,-33.21875,976.5704254678398,-41.0625,930.9066124449595,40.5,580.7684026356806,187.625,2346.5089727880863,-222.875,2127.486130242686,640.25,3899.5884318091826,-219.0,2399.5685159003065,158.03125,4703.073087649546,-74.625,1735.0405569827467
B,21,-0.875,627.6979642909478,125.0,1441.6327548998045,-0.5,1317.7388777751075,-62.65625,2974.558881260537,-35.3125,1795.8289770587148,-32.25,900.4283702771698,6.375,537.6056727518786,103.75,1242.8845229947954,-50.625,3807.78539434341,-79.625,1495.767210121615,-34.28125,1191.0195274001335,-80.15625,871.1662839756469,1.875,998.2319291502351,57.25,1887.1911502282962,-7.75,3254.385032152772,-57.71875,981.5449312937424,-59.40625,1341.3816538222586,-29.46875,773.9890173790824,-11.75,597.3666692241876,-46.25,1869.0762257061642,-34.5,2445.602942016549,-60.03125,1125.830318153423,-70.46875,1223.6074478865505,-42.25,879.5398654978636,114.75,3452.785750303659,-295.5,1776.1221101039196,535.375,6964.189623306864,-75.0,2315.2813139011855,51.59375,9081.373966323099,-20.875,3260.5681325307405
B,22,-13.625,576.1049030992533,77.75,833.9999625299752,-16.875,1260.0395765113888,-38.3125,1373.3588032061214,-20.03125,918.271898880412,21.0625,844.5965729824802,-0.875,285.67767566787575,28.25,1067.3729139808636,-44.125,1167.2748109913964,-44.71875,1475.9890589528222,-17.34375,877.6907061066202,-6.4375,997.8182430151045,-9.25,795.6465531251927,8.5,1557.8891969585,-71.125,1928.4314181155107,-29.40625,1127.5199515799875,4.375,1095.8701665229325,23.125,1227.5131045634503,-8.125,552.7888243940899,-39.125,1048.231717882549,-54.375,2013.1047810223392,-17.0,1037.7865568121415,-44.09375,1614.4542878201717,13.03125,1060.552287854511,221.5,3329.4056151211134,-217.0,1908.6762428447628,621.25,5164.075080544434,-133.25,2396.9515404988897,72.125,3908.071021536712,-64.15625,2281.1255734474457
B,23,7.375,453.9791948702055,100.875,1161.067067130491,104.5,1388.7223444591075,-15.75,3433.441822719587,27.78125,1795.9425403944408,-10.25,1363.7978680874962,-6.5,351.2915455857143,78.125,1913.323021440708,-37.125,1956.545229320038,-15.8125,2798.634337019352,1.15625,1138.5169110891316,-31.0,2293.507698373825,-18.5,715.3298190345486,32.125,1666.99714588088,-48.875,2195.046863822046,17.625,1564.4488396476888,67.375,1060.3313677219023,16.34375,1702.6937593372265,-12.25,805.8585096032677,-13.375,2576.978581473855,-53.875,2461.4436788955786,26.5625,1642.009666869763,-51.84375,1103.9054281667145,22.6875,557.7204966143436,200.625,4973.419659487323,-214.75,2609.3839191464335,644.125,10211.106281122286,-165.59375,3634.1075061438314,134.78125,7362.0642347033645,-55.46875,3000.920764785941
B,24,-10.875,898.8744263661082,23.875,1279.1319261026206,-3.625,2490.5743031226752,41.6875,1900.621139218374,-6.65625,1555.5798679546922,21.59375,847.5008060237686,-1.875,295.55199944341433,-1.75,1515.255403389145,-48.375,3745.6732851885254,33.46875,1433.4698066312515,-0.875,1128.8538089030837,34.5625,691.2924009373675,9.0,1231.4885301942525,-21.875,2327.4660006915246,-17.125,3730.3233417996084,31.34375,949.7158328078655,9.6875,1252.4563474803224,27.09375,1140.5645356405473,-3.75,749.070715954108,-55.125,1275.3633734645982,-13.75,2781.54272616834,11.34375,1126.429164699644,-27.4375,1707.046241638975,18.28125,984.3906819187378,188.0,2751.0992348514073,-255.875,2878.967954732216,660.375,4074.452277223897,-71.71875,2512.600883974301,47.5625,5320.460987648885,-20.46875,3848.4830289379524
B,25,-13.25,1054.5693137485084,47.125,1185.7738968180233,21.625,2109.6764821590536,-18.5625,1615.3844538046508,-37.53125,1036.0010251073295,-5.59375,938.4514791457988,-4.875,655.5072344185074,3.875,972.380318792498,-21.25,2594.426995985819,-27.3125,2360.929470535651,-18.25,1068.0606256201004,-10.875,922.3126757640274,-7.5,1526.6164384022595,-35.75,1257.0711743970585,-15.5,2646.9174052093126,-15.90625,2252.5270719707096,-23.5,1588.493645722261,15.59375,1434.5891585087827,-19.625,1120.5785824184754,-66.25,1260.9563582852502,-61.25,2389.691703442099,-16.59375,2668.2756821983253,-74.0625,1435.6464558148534,14.96875,1314.0831519631615,175.125,2514.0800970484215,-265.0,2178.2405744086213,616.5,3469.372673841771,-45.375,2092.1733578685585,38.09375,5504.721713898073,38.28125,2602.5543490287455
B,26,11.0,970.8748632032864,54.375,1244.5572945328793,36.75,2766.092268435744,4.03125,1372.1623784280916,13.59375,635.2351857469307,-7.09375,748.5223927585183,-0.25,451.4243430520778,44.125,1133.3673210283594,-10.875,3862.4008381284043,-21.96875,646.412140413094,3.90625,1019.7523093677884,-35.40625,936.6327608571769,-9.625,827.5837476503511,39.5,1802.2080207345655,-4.25,2494.2906682060934,-34.59375,1063.184275519036,-6.5625,1275.1234973890764,-35.9375,1025.877884347718,21.125,895.8645178680758,-43.625,1356.7045954720577,8.5,1666.2249998124503,-4.03125,1681.0186733863004,-27.40625,1598.013216844885,-11.8125,1067.344175907542,120.125,1268.9603951168058,-258.25,1749.2152347552887,602.125,3048.134180835056,-66.21875,2571.084106636428,39.1875,8053.8968962138915,-38.375,2895.2836513673406
B,27,-7.5,667.6187160348337,31.875,1626.382022888534,54.875,2254.1125159084227,15.28125,1912.908603971564,-18.875,1185.3014054977746,-3.84375,425.6491446437283,-5.375,302.3914836350389,47.75,1256.407552309361,15.875,2346.4798069395356,24.0625,2192.668379188643,14.0,1206.5147636891975,-25.46875,553.3283939248352,21.0,786.232154010506,28.0,1070.8305188030456,42.25,1803.0840073329916,10.625,1409.6241686616331,32.28125,1598.3821162814722,3.40625,1298.0486041404372,25.625,617.0323001067286,-43.5,867.065020629941,72.75,1505.498733808833,12.21875,1762.271593965708,-14.0,1192.183474763847,17.0,717.584054310016,225.625,3407.0158290467334,-192.0,1692.5861868749846,629.75,5520.64778241648,-86.4375,1899.631723148924,94.0625,4154.747254177292,-39.5,1740.7080096903098
B,28,-13.625,1127.89487957655,61.375,1665.4784926185628,20.875,3633.1070359094842,-20.65625,1690.871033102743,-33.53125,1266.286845080307,7.9375,1047.9976722749675,0.25,420.057064575755,64.25,1920.4259781361009,-28.0,3303.0996049165697,-68.09375,2065.550703798127,-3.3125,1300.4856890192025,-38.65625,1575.917641593601,-6.875,1184.0102340668343,34.125,1487.9159870016183,-53.625,3061.5817577479456,-32.4375,1995.6598523029295,5.75,1472.3349440599445,39.8125,1666.6017527723143,-3.5,844.2705431317618,-30.0,1238.1934420759949,-58.125,1805.9141686068583,-35.75,1887.9479766402462,-51.1875,1808.5817550898134,46.0625,1382.7994236669865,175.25,2765.4071015855875,-208.5,1586.537976223702,609.25,4036.118238790831,-136.90625,2616.1061995761825,110.59375,8850.450676587658,-17.59375,2853.3477252537828
B,29,-10.75,656.4887184864642,77.5,1154.0458179812447,71.125,1894.7492536942718,-48.96875,2431.9101608146298,-17.1875,1914.1410024718007,34.875,1233.3854007871992,2.875,418.7221445959122,59.875,1260.2180304911528,0.0,1738.8430061394272,-42.5,2247.645295637192,6.34375,1336.7314523066843,-9.0,1282.7727780086386,6.625,1449.9588302345,42.375,1878.2012297341837,16.875,2040.2205112131874,-0.21875,1181.5916631385132,4.59375,1116.088954210612,23.5625,1049.0801309212513,-13.25,784.461877658819,-82.125,1736.8082750767283,-78.25,1975.1288407341938,7.09375,1307.424241576137,-22.90625,1228.3150389704335,25.15625,902.3613504776994,179.0,3686.3647404997787,-260.0,2599.839802757085,613.375,6474.970471699079,-46.28125,2646.7874068667543,36.84375,7443.7843706569,-22.3125,3029.6903249084303
B,30,0.125,846.5586124864598,50.25,1392.1982392964014,40.875,3400.7041527270494,32.0625,3043.713181887175,-32.65625,2644.8179002694947,0.90625,1129.4579274859855,36.625,564.5344182377191,39.0,1507.879968697774,-28.25,1536.23466225053,22.1875,3454.134980692525,5.59375,2210.449909794596,2.15625,1119.7883759157073,-8.125,503.72262642748143,40.125,3069.805284439878,-2.125,2270.466688673278,24.09375,2776.4722261281377,-24.0625,2239.778475897505,16.84375,1868.216112856309,7.0,524.9314240927094,-21.25,1935.9915902451642,17.0,2625.5704142147856,3.375,2714.3248671400775,-47.65625,1360.036180800326,16.46875,1361.6685762414572,187.25,5405.498537369148,-252.125,1985.9062123813903,614.125,8950.883419214832,-122.46875,2630.324967855386,173.21875,5893.152067942795,-40.0625,1903.0857169591047
B,31,-20.25,308.54811213164146,34.5,956.9136585920382,1.375,1071.7591191004628,-15.34375,1041.516910849717,-9.5,1024.613768695307,3.40625,949.5166487276236,-1.0,211.36461387848252,18.5,1193.7712301777087,10.75,1212.3520270531988,-15.40625,773.9363612151437,27.3125,888.7601419076747,-6.3125,681.6331691927484,19.5,682.2307161070953,17.0,1619.9373444673718,35.5,1838.228427045997,-17.90625,886.1285304406678,36.84375,926.4410770987745,-9.78125,704.2992410179337,5.625,807.9640210894295,-70.75,1177.8108666080475,-18.875,1248.5364369432716,4.59375,714.2731821305749,-26.4375,1024.272605849512,17.3125,561.4955163166933,228.25,1867.0755039633507,-186.875,1813.7861600461615,596.375,2654.127796353258,-91.6875,2408.6884065490394,95.75,4269.6814430353,3.25,1533.8404415062214
B,32,-9.125,886.2060902380439,76.0,1353.553102024446,26.375,1992.2519568003943,-10.3125,2644.1566760204946,-4.75,966.4782718716443,12.1875,639.6449912598003,-3.375,447.37356803347245,34.25,1309.2409776278773,-24.0,3403.1886518381552,-28.5,1328.3540802436676,3.625,568.0864123309059,10.21875,598.185628294794,-14.875,682.1717044666981,40.0,1696.7999292786408,-13.125,2717.9347369602165,-41.0625,904.2460235432335,-21.65625,784.940746544564,11.5,821.6840937976103,9.75,413.4125512124662,-35.625,982.9132003259494,14.375,1509.2434725301946,-60.5625,869.1461304600913,-16.28125,1273.4001294363204,15.84375,1192.8998310151349,198.125,3150.6786545719,-228.875,1533.866270042796,549.125,6350.942625656053,-61.15625,3103.943219009642,80.59375,9010.750800638698,-14.15625,2280.7756508117886
B,33,12.0,558.7128063683524,98.25,1371.2760252771868,112.875,1361.1394984993271,-16.40625,2337.3770269708175,2.1875,1641.3883878728245,-19.125,1142.8906539450745,-5.875,258.7025016790522,72.25,1374.2339456948368,-9.75,1339.9156456658009,-40.6875,2469.176348470022,-5.21875,1207.0368349385355,-31.09375,936.6844572538489,-9.125,872.0597653687504,82.625,1770.2899788947007,-18.125,2037.7806516833455,-53.75,1367.7077538714182,-10.84375,1506.7193067509083,-25.65625,1409.9332122784886,-5.875,878.7115478784833,-24.25,1800.8722712896658,-22.0,1890.595408859336,-51.9375,1104.529111700434,-55.0625,1083.753141215171,28.96875,885.3762083280968,277.0,4268.82208577495,-217.5,2477.9454695372133,680.75,6813.669234524083,-179.4375,1895.8424897901593,201.0625,4460.925485097655,-73.25,1688.0909150575985
B,34,0.375,843.9326746696089,65.75,1291.3570139585722,66.25,1613.8670755362723,-37.5625,2218.3271137489505,-26.53125,1300.0782424621364,11.625,732.6990663805981,5.5,379.5230559531265,89.125,858.0927889074701,49.25,3576.073047002815,-47.53125,1764.3880133132388,-17.46875,675.634608367154,-32.3125,783.9392290501542,24.75,799.722725386743,107.375,1231.8490611170673,79.0,3288.7655738893886,-57.375,1203.256823946991,0.5,1219.2129889810064,-45.84375,877.0680599793482,13.25,882.1334578735805,-72.0,1435.4386089275988,-31.75,2568.025299232856,-5.90625,883.7762499416566,-29.6875,1956.3768079906667,12.1875,592.4590933927421,252.625,3140.6139701298853,-204.5,1679.0177932350807,668.375,6239.447600499182,-209.75,3261.536658539959,167.5,5517.408778131271,-81.0,2367.9077262427268
B,35,-9.125,515.3787290672753,45.5,1130.8420535158746,61.625,1108.962514864682,-12.40625,1290.7073850067402,-10.6875,997.6980830109628,0.875,936.1813643066176,-0.875,198.68249639814778,59.375,1086.3655505284582,-15.625,919.7778858914797,-23.75,1204.7255911617383,-2.125,828.0344101394579,-17.875,884.5745711216211,3.75,545.2824382831342,70.125,1119.5396305513261,-1.875,1178.1281697570091,-16.0,1164.9782723295743,-1.75,934.5430032909134,0.28125,1028.8965944877248,-3.125,601.1511743105889,5.25,1037.5381619487546,-10.0,1106.5373920478241,-19.53125,1002.5602533132048,-33.96875,1021.4982098728502,12.59375,893.0914307678344,202.125,2867.1736927460465,-178.25,1760.001118607599,555.25,4458.203386735513,-129.875,1734.538712994034,92.34375,6645.2757919130745,-63.46875,2236.5319691485383
B,36,-6.125,770.9519987489493,77.25,1417.6605508724576,22.75,2666.227754243812,42.4375,2969.165601830546,52.65625,1717.4529762371772,-9.59375,888.7888479334883,-22.875,284.9933935637807,84.375,1087.9137646776053,-91.625,1902.0847403244156,32.90625,3529.362233104012,92.46875,1630.03613810352,-14.75,1342.992623769766,-11.625,649.516250277851,58.375,1922.2093692870712,-41.125,1657.5775198689803,0.21875,2631.319200210882,52.15625,1683.8373605654251,-26.9375,1978.5495624557273,-4.875,706.3686957779203,-54.125,1474.5677279714894,-64.25,2132.9378653631707,20.9375,2648.709331182595,5.0,1385.6032756528832,-18.625,1380.1961760470865,247.75,5456.786686091,-241.625,1870.8099474225062,659.75,9055.845567228938,-7.09375,2275.876264751873,5.15625,5988.234934589318,3.4375,2358.907320369698
B,37,0.625,555.7923257611606,35.25,1260.6626977506712,60.125,1040.175218112314,4.90625,1610.0031125624998,2.21875,848.8085669916612,28.4375,770.0336817917447,-1.0,288.3522151813646,25.0,1294.9366779885418,-1.125,1567.8773020791518,-25.21875,1662.1438478358116,37.65625,715.0456108430689,-19.6875,735.0120508153251,8.625,698.2951448886065,12.5,1706.4031616238879,-18.125,1697.0276911043613,23.46875,1482.0910478183982,37.9375,1315.045577572789,25.28125,961.6314988853253,7.0,697.362172762475,0.0,1319.6393446695956,23.625,1445.1921530976426,26.4375,1177.4547745428483,-2.8125,931.4045656124679,27.40625,920.3496909930146,221.5,2281.227904002579,-162.125,1706.82658298229,606.5,3358.708345480447,-88.125,1980.7780471004316,68.9375,5277.238564921407,-53.625,2230.1658955949893
B,38,1.0,722.110102408213,24.5,1190.26331120471,50.375,2319.331554430069,-52.34375,1051.7117775730846,2.0,1174.039288098997,-9.875,809.7564738086384,-5.0,711.5398794164668,67.875,1061.5062337899858,4.5,1589.7741191754255,-39.03125,1336.1805520862206,8.625,1045.489889656997,-32.65625,1188.3950734439863,13.375,466.0264041607514,19.75,1365.2226695671295,24.375,1460.2922171178616,-40.59375,1055.7139130517023,12.9375,1139.6224960897139,4.03125,1348.427729903771,40.25,415.5621945028205,-74.875,1084.9936563754648,60.375,1350.9523897513932,-63.0,1194.3945118762058,4.0,998.3697023147287,-14.53125,1011.9134407267439,165.0,2909.9341916957505,-239.125,2229.1091795546936,591.75,3321.5163611669896,-202.46875,2559.724960620464,165.75,6199.375467537033,-88.1875,1956.3046388136358
B,39,-15.125,1178.7810375023005,107.625,1599.5144136190208,21.5,3328.17153253855,-4.03125,1437.788546787544,-29.84375,769.1601795698589,33.34375,985.9859788992628,-0.5,245.54378428296653,-3.25,915.0936768987096,-38.875,3102.5459278429707,-2.03125,895.2702624199228,14.1875,730.3990107083594,-33.375,778.4667121174804,18.75,1523.9086053631956,-35.5,1116.2140251761757,10.625,2559.89015572446,-21.59375,646.439617219534,5.09375,1326.2345748248827,4.125,566.3274643481454,13.0,825.6058381576526,-85.5,745.6143440143838,-49.375,1459.8608184943523,-19.90625,938.1207731208906,-26.21875,1507.389314642517,36.5,828.9261125094323,236.875,2227.5811397960347,-238.875,1338.8660255511004,580.25,4763.515816862583,-119.25,2873.0147167217924,150.09375,7717.057957697411,-20.59375,2675.6480974169485
B,40,3.5,568.9329925395433,102.0,1303.4423654308616,57.125,1668.988386530895,-10.9375,807.7649695881531,1.8125,606.1105735290797,-45.0,689.5909113380193,8.75,371.151502085065,61.625,1127.572995142665,18.375,2027.0150121237386,-2.59375,1109.422283763463,-16.8125,728.6145859394732,-36.625,595.8765470926004,39.125,779.2918159296939,39.375,1299.8038734266797,52.5,1939.8543115399157,-4.0625,1294.1431996088183,-17.8125,1396.8327887917544,-30.78125,856.2444428423681,31.25,873.6998554995874,-37.0,1142.387850075446,57.125,1775.8176241875178,-0.375,1382.8211595774053,-33.84375,1258.142631753625,-12.96875,860.9491304795176,210.0,1032.5676733270318,-173.625,1474.2160151670446,628.25,1486.4534763994466,-107.84375,2036.8609597456418,84.4375,6836.527540249783,-101.40625,2784.6153443897665
C,1,432.0,2187.014860489064,-197.25,1740.2420629038938,484.25,2870.6732550919132,-74.0625,6792.063783092275,-17.34375,3976.8406320955255,-11.5,2762.57962554928,537.625,2398.7240065032493,-204.875,2341.0180978315825,591.125,2948.7300205978504,-61.125,5810.661783254554,-2.34375,4535.934582650629,-18.5,2886.7603706404175,692.875,3292.817749948363,-104.875,3492.505223242336,332.25,2510.7492781040482,-51.09375,3777.419823432516,47.96875,4636.692561004389,-21.25,3015.748393848532,538.875,2278.597427009651,-219.875,4586.515069677085,334.875,3360.1174435389903,-58.1875,2330.6016449285685,45.53125,3693.957836660218,-40.9375,2655.6024732805454,2.625,1364.2087851113554,69.375,6053.48730975584,123.625,2898.7244366056943,-34.25,2996.656282425464,-10.1875,3115.030983368183,-71.875,1971.40805881862
C,2,434.0,3563.356984642431,-240.5,3962.4634698631608,487.625,4360.640017173511,51.65625,3400.780430737324,96.90625,4917.263519729336,-61.15625,2858.2024848383185,580.5,4059.977062743089,-319.25,2605.6694797115,595.375,4424.231018987933,63.53125,2705.4728328008464,131.625,4303.979377782263,-24.25,2196.2959300831935,820.125,4367.651712805749,-275.5,2527.266260210823,327.625,3305.9022005157685,26.625,2047.7330110087594,117.875,4625.025822563048,-32.4375,1985.9829105744466,761.5,4249.462760161571,-297.125,2447.71367491686,303.125,4617.617538772023,35.34375,2506.72916378813,53.03125,4153.859406356147,-11.53125,2004.0564797488712,24.5,1457.4404790590936,45.0,3405.14889542293,80.125,2252.646995064917,-43.90625,3246.843951818587,-16.46875,3009.5680232424447,-13.5,2226.9523737610557
C,3,503.0,5150.114464747361,-193.25,3808.153809590679,579.125,6146.0808434623605,163.375,3733.4094232852362,170.90625,5293.654611651665,-85.875,2442.589350336032,666.625,5297.212343240074,-173.25,3241.461312047392,677.125,5123.66726421369,219.15625,3882.4838063842503,342.5625,4488.319590458522,-90.28125,1733.7816549809372,828.5,5773.36753983323,-160.875,2462.271864432317,407.0,4924.515103032988,136.5,2865.237882794376,392.03125,3776.683709654998,-154.46875,2495.3367756724615,731.125,4269.540108064919,-305.0,1795.4548170310497,340.375,3056.470572306398,198.90625,3043.5581906644957,409.34375,4775.934919006533,96.375,3012.5407232724674,59.25,2180.898309756785,19.0,2611.2066176386734,94.625,2686.334232625382,-47.5,3731.307796872298,-17.53125,3533.968236844162,63.125,2089.599793471228
C,4,511.375,4957.892607688775,-266.625,5020.678600485695,535.375,4970.096086533438,73.15625,3253.7859305485877,96.625,5545.244470208234,21.15625,2215.378185961922,627.125,4526.777411622423,-228.75,3901.5323191664065,531.0,4255.1244400134765,111.25,4025.34134422163,105.59375,5057.857469196907,-7.875,2216.838074121563,801.75,3968.159893136868,-170.375,3336.5876070283243,301.0,3859.419645490757,144.0,3089.261096929167,241.84375,5028.315213054561,-0.5,2664.686965667825,650.25,3039.775474850075,-234.5,2740.674871268024,314.0,2695.1769886224542,117.75,4383.625347529143,126.5625,4933.823719600626,4.4375,2361.9896001239613,75.875,2031.1911491474652,93.75,2762.9618052915607,69.75,3078.2553398800433,-16.03125,4812.376787282293,-46.0625,3129.6101588047272,-12.6875,1709.6667152821774
C,5,496.75,3747.5208388346555,-316.75,7057.597568401021,622.125,4781.6665488483195,201.625,3041.616056371185,381.375,7067.138170566286,5.125,2651.3557115888843,633.125,4966.24820507141,-260.375,7174.248208653991,612.625,5002.265497689522,346.96875,3749.365116959595,542.0625,6708.9876096244025,-2.65625,2553.7290210760298,746.25,6602.345487589997,-209.0,6692.796276594709,184.5,4821.590790392731,216.03125,4019.157533647249,583.4375,6481.0629429973715,-146.46875,3356.6268874457046,652.5,5824.237010115574,-319.5,4008.536609537201,309.0,6424.024050390845,246.78125,5838.534660631762,216.6875,5934.6254959638145,-26.53125,3308.5301871108018,-4.5,2162.915335837258,23.125,3665.115105201336,119.125,2335.5420643557245,42.6875,6789.94830814961,-104.3125,3696.577643894924,57.25,2813.990094154562
C,6,540.875,4306.337508181982,-243.5,3151.932224842406,530.375,5823.348852625523,92.90625,3129.6765044427416,99.0,4693.2684906150425,13.15625,1667.7959652895008,663.875,4410.775270218945,-181.0,2360.54972411089,583.875,5377.343348194813,191.28125,2862.363197979676,173.5,4586.150319167482,6.09375,1836.7472328714525,789.375,5201.420249256447,-63.0,2061.274605674848,261.5,4090.8247029174936,177.3125,2136.607261488117,197.5625,4822.31525007374,-103.1875,2301.803076360736,582.125,3787.590788928366,-188.375,1627.139625039904,125.75,3283.05847305527,199.6875,2263.286844357946,79.78125,5410.3818761616485,-56.5,2329.2952662769053,10.875,2033.0959727408344,-123.75,2310.0783401218237,12.75,2444.448084435421,34.09375,2847.106265133238,-137.15625,2588.4700489547754,110.21875,1827.704703555374
C,7,600.5,5197.456854077771,-269.75,5898.01177834531,619.0,7263.344064547679,192.34375,6047.2974005406695,398.09375,7007.976595277765,-59.0625,2592.8551099307015,771.875,5720.9143923305655,-205.5,6087.9333726643235,591.5,6993.840271982196,291.78125,3504.3249682925293,537.375,8222.15159930021,-91.375,2094.7892159773496,905.5,5622.922794241444,-218.5,5419.118816745025,210.25,3594.5187351716504,168.6875,2404.641909899216,506.21875,8486.00659812367,-233.28125,2617.2473879342087,728.875,4350.402479584504,-271.0,4694.248715183293,221.375,4310.85671408538,229.09375,3632.145426254425,395.59375,6068.751368997657,-114.75,2626.7303820529432,47.0,1993.4615622078095,-26.875,5292.796636408299,61.875,3545.822892415102,122.625,4913.560348349759,-174.875,3688.8478193570145,80.90625,1901.8148135296815
C,8,503.875,4927.552788593442,-248.75,4128.388963930119,453.25,5945.907284637055,271.59375,3665.4826409643433,359.4375,7160.651510763092,-93.0625,3439.899925302152,620.375,5970.5506747179525,-315.75,2630.3906435166623,482.25,5958.129818785422,369.03125,3448.8591545282675,485.5,6866.456486973467,-50.5625,4280.289512240235,785.125,7303.12256739369,-245.375,1775.5820480549469,149.0,4322.398639644428,246.875,2583.354066785078,502.5625,7379.678007616169,-200.125,4787.695986523685,756.125,6020.454591172913,-230.875,2102.6448188828754,235.375,3737.454629741343,251.15625,3306.6416980580066,247.03125,6515.269092123013,-123.8125,4167.8894421929845,93.125,2822.367487478376,-4.375,2676.8863179774744,126.25,3712.0005303744233,94.71875,4086.3673754507727,-168.09375,2770.5631688270414,59.21875,3027.348156125826
C,9,444.0,5225.758126817582,-134.75,3538.7553514618667,469.75,5990.966945118292,190.84375,12181.255662157162,229.25,5645.203993214062,-38.09375,3321.642076588165,573.25,5346.771029088491,-193.5,3599.3286526795523,585.75,6337.802216659968,228.75,10512.96918096881,301.5,5566.120843998988,10.59375,2727.0762716159843,796.75,5534.847914577238,-136.0,4264.996717466498,409.875,3809.5024589012933,89.5625,7011.284640391784,407.9375,5191.727475859432,-93.28125,3549.5852243112063,731.5,4067.3515645933535,-280.625,4997.565718364792,376.625,3279.1317615147764,147.34375,4206.672888172545,239.09375,5898.238833326515,74.53125,4330.183216276586,2.375,2290.391638863319,28.5,8798.803086215761,39.25,4822.521584969838,-50.9375,5530.314259478728,-37.71875,4459.999357023321,-10.03125,1546.708915010655
C,10,493.375,3613.984173924258,-203.75,2953.8183656921087,516.0,4077.3081806505625,227.15625,9766.797309985292,372.75,3575.6464275708245,-153.5,3073.920542239178,627.25,4231.583679605072,-209.375,2561.78289661224,550.0,5112.78153259065,265.5625,9129.278082553612,548.5625,3903.7645607917684,-157.34375,3552.015076063999,769.125,5030.71945494628,-147.625,2040.545848388367,349.125,4361.111123827848,122.25,5585.127309426348,638.71875,4296.280544220598,-277.0625,4200.505527147149,657.125,3823.512944188237,-270.375,3083.7478592412513,360.0,1523.1076783996593,219.09375,4533.131604912981,556.53125,5491.267971654947,-66.09375,3244.8758678046433,-27.625,2363.2311269478064,-84.375,6452.312714009993,46.25,4762.383115363567,97.96875,3937.151377299765,-123.125,2283.0098793862016,106.84375,1932.0778502265216
C,11,512.75,2079.0212691312227,-128.25,4662.1803844874985,468.625,4200.131796667219,143.90625,5306.1353247878005,243.0625,7303.344370635535,-162.75,3153.232171122196,627.0,2100.1533277358585,-169.875,4050.563415671331,585.25,3415.863644453625,189.84375,5403.563211607313,169.34375,5462.655544749819,-153.6875,3030.084759927311,782.625,5461.903020868734,-132.625,4526.519535954197,348.375,4076.6067212051494,97.125,5243.706065072202,240.625,5020.022278025765,-212.9375,4066.6373388948455,673.75,6183.926174971691,-236.0,3525.865851106647,292.875,5081.229746269598,98.40625,5936.750667765233,134.875,4554.202240445082,-136.4375,3045.417817573436,26.875,2623.891239052221,-10.375,3672.341332089788,28.125,3469.514877381995,1.875,6080.954981281723,-127.625,2923.88205933054,79.90625,2410.453929752846
C,12,390.0,4540.454712911473,-251.625,3849.75159710013,401.375,5202.350200570411,95.5625,5674.725361953101,182.96875,4952.903602208854,-10.0,2654.6288111523236,522.625,4427.185969594569,-238.75,2459.549031326678,470.125,4972.675535803135,97.5,5471.993906475042,101.3125,5271.162261763884,23.625,2264.400137867643,726.125,4051.5072484663037,-134.25,2191.4531565835487,265.25,2520.1889686092986,72.65625,4643.282389709454,22.65625,5838.578415426648,18.375,3874.575240832858,593.625,3277.8059520622937,-186.625,2301.553955347343,277.875,2811.50048628397,70.5,4193.569318015382,-15.9375,6281.662180195123,28.8125,3667.2865517087357,42.25,1702.1348176628078,107.5,5036.955404805566,122.125,3790.4185764074923,41.71875,5075.621792169747,-5.25,4343.282917333385,-0.90625,2396.0030305617183
C,13,380.125,3710.0961556777743,-175.625,2658.108041328456,406.75,3210.0198500165075,152.5,7638.967060408102,167.8125,5143.063717507664,-33.375,3188.498154990057,530.25,4465.53971402114,-186.5,1693.386473903698,481.625,5048.253149295803,156.15625,6402.912931380212,89.15625,5800.026686950323,-36.5,3294.7224940046167,665.5,4563.4099914428025,-105.25,1277.112539089645,256.375,3554.0934651996704,117.09375,4319.891733013796,133.0,5933.069720852773,-84.46875,3357.23862519831,601.25,3470.5760959097265,-142.5,1682.0685925371772,351.75,2798.2292503474405,118.15625,3955.757387256698,124.65625,5651.005367462142,-15.15625,2831.4700036970085,71.0,2838.6984693693694,41.875,5193.381940929725,134.875,4242.125674043026,26.15625,1924.1244779992633,-36.34375,2347.8003882540647,23.0625,2467.390612285325
C,14,467.125,3687.4429804913593,-137.375,5310.762243725,519.375,4013.5307535105544,75.03125,6276.468734907666,89.5625,7002.426065914138,-77.8125,2666.6834907509647,617.625,4381.911553120966,-130.375,4549.896247100037,579.125,4969.774113013085,149.75,8009.240760677631,145.3125,4687.75288942834,-35.75,3085.839675031741,770.875,5666.527881725722,58.0,4030.1003709585198,353.75,6974.2124241737865,76.5,6084.02706375473,182.375,4783.606117185548,-153.0625,3367.2873535078274,630.5,4141.813461516585,-141.125,3851.3523903136934,342.0,5142.144494274738,135.90625,6379.68083233487,168.28125,4981.748251331899,-56.875,2667.14304957102,54.25,2501.382605180583,-15.125,4644.084488289915,78.75,2956.4060001122984,10.375,6662.473146052823,-70.3125,3807.357568228095,89.1875,1441.7971519405044
C,15,450.0,2689.6457015748374,-97.0,4393.768655721418,460.375,2741.9781836066823,106.65625,6756.844962745996,95.03125,4548.593494727072,-34.28125,1931.7087680725679,576.0,5365.63397931689,-82.125,2584.509234724264,461.625,5665.21860649481,121.46875,7811.510909326277,142.46875,3133.6368346576855,-35.53125,3557.278111354725,685.5,7143.027701892244,-25.5,1919.6759492164297,233.5,4988.323140094274,64.84375,5048.865034028533,169.9375,3713.4687619655224,-68.34375,4622.379119629408,596.0,5939.824829066932,-66.5,1439.679391392403,280.75,4225.8835096935645,76.34375,5509.09788219323,94.78125,5199.351430313058,-33.1875,3306.1854288354352,91.0,2899.9531030690823,-24.625,3466.681570230384,15.625,4188.535705873235,6.1875,5481.410347925409,-64.53125,1818.9229811961357,35.375,2039.8426831192155
C,16,544.375,5124.460396897902,-214.625,4608.653774083599,572.75,3981.20841422551,-16.1875,8126.665650181737,58.875,3592.58675739014,-179.9375,4811.878699748545,674.625,6065.476206315131,-147.375,3867.2701107337975,620.0,6793.5796896776,120.03125,8326.52349980311,106.8125,4702.644478359357,-52.90625,5039.101013321814,796.25,5328.937974634346,-22.125,2682.5767434269237,362.625,4423.156294929561,59.5,6323.449992883631,130.09375,6513.28150473791,-104.65625,4646.830019011449,642.125,3168.1205760474145,-122.125,2300.7955112036793,324.75,1762.697488935637,92.65625,6096.80889179626,98.21875,7531.727689142674,-82.59375,3339.9396687980666,37.0,2525.6124009831756,-4.75,5847.383383830754,60.375,4062.0529734821284,-35.28125,5010.422993834795,-98.5,3589.3521264289466,56.71875,2927.294946217145
C,17,462.75,3965.754333982376,-128.625,7194.219770716974,546.875,4757.302306389095,103.28125,5387.146144031034,162.375,5763.20319326631,-83.59375,3350.57265496675,622.375,7255.0072956114245,-157.625,5375.906608133646,670.125,5254.631098790381,190.25,5410.729970392165,377.71875,3476.1644472965368,-13.28125,4796.752718209314,773.125,8396.053491633733,-56.25,3919.4366862471447,400.625,5750.225483350631,106.3125,6137.84026265296,461.6875,3871.881539038062,-106.5,5715.197546891971,591.375,6032.07311870264,-129.625,3025.1125366463643,303.375,6090.6778037731565,172.65625,7093.8805213074975,378.46875,5092.124857220553,43.625,5305.009235088569,-9.875,2571.004858878139,-105.25,4375.575097915701,-73.75,3755.010510970642,-31.5625,8260.38049190797,-95.53125,4591.989431229501,36.25,3573.993276084889
C,18,523.75,4830.980121828282,-241.875,6857.189875187576,669.25,3694.74578793995,95.3125,7902.138944763231,195.84375,5987.540590203622,30.46875,2523.679592682763,638.75,4510.215010118697,-179.875,4228.387102001779,732.875,5620.372917731972,174.0,9359.845815370038,367.3125,6357.090069547839,36.25,3192.4990994517134,816.125,6085.753403184769,-89.375,1858.610666432053,471.375,7047.288138665468,142.8125,9031.820678985148,510.65625,6714.035046124345,-80.75,5131.4648554287105,644.25,4818.1836761896075,-210.0,2761.779498801452,410.5,4282.661643184061,197.15625,8059.616426625769,378.6875,5892.0349542703625,84.875,4163.724990543324,38.375,2558.7625640873753,-48.375,5188.30765851207,71.5,4299.127207934187,53.40625,6704.677694804645,-15.25,3042.3326063236414,-37.53125,1982.0759159334532
C,19,467.125,5282.057528499193,-204.75,3044.258930758026,418.0,5146.087348656259,101.28125,9360.307948441035,131.1875,5879.541922194599,-38.71875,3374.6169989568352,589.375,6008.957697419329,-208.0,2720.5025271078134,295.375,7188.391413200522,93.09375,7605.201169920552,221.8125,7882.564753292151,-26.8125,4454.428614013671,694.875,6237.001541957081,-105.125,2111.36572729004,188.625,5507.559905200759,12.8125,4835.02620492834,198.3125,7548.310106563174,-76.46875,5169.027725213266,632.25,3894.410602068046,-196.25,3409.5908753837316,336.25,2479.377126921195,61.15625,4298.177005351913,122.9375,8187.645971742657,9.65625,3954.1760488862833,49.75,2592.61044846695,-16.75,5937.761988956782,66.25,4334.924559608852,-48.34375,4480.10611348503,-32.125,2496.852064976017,84.40625,2570.074121734807
C,20,544.125,4885.308432880671,-309.875,4943.9565111735155,628.5,7357.928427893275,225.96875,6939.539963518723,134.15625,9303.44683474012,52.9375,4370.242655859483,651.75,4535.704899737195,-291.625,4438.185593164734,665.75,7047.056615176297,314.53125,4667.366300872842,177.90625,10722.994606683384,95.34375,3892.380783413403,808.875,4308.048483289736,-253.75,4713.644125037443,381.0,3242.6273298052615,299.46875,1833.5257358497693,121.0625,10015.024715825406,-86.0,4283.676290582658,650.875,4575.311162574082,-244.625,3567.040525333992,330.125,6807.282496295787,366.75,4315.4479996287755,56.0,6083.782453170067,-50.6875,3118.647357404128,18.875,2283.8378301392154,-75.625,6456.364329820228,48.125,4131.826773277771,215.09375,5279.237867340412,-218.5625,3837.661437463413,142.3125,2282.218841356751
C,21,641.125,5983.373649904793,-130.375,3322.5896315035657,370.75,4864.458596544943,173.8125,7801.041338490891,423.0,4820.8917808326705,26.71875,3935.082481937124,636.375,5039.033077821081,-108.875,3144.1419710908413,365.625,7547.700302699823,160.3125,6783.399209824212,176.3125,6537.862974806351,-1.3125,2894.5498617822686,623.125,4971.115843990663,-20.0,2155.2466216189737,-12.75,6141.04278095341,90.0625,5391.296098443652,147.65625,7280.579615531028,-47.1875,3859.5836436517025,566.625,3174.703231701351,-39.25,1844.0022878239604,156.125,2558.7705024825887,49.5,4105.8302068522025,101.71875,7926.737377518473,-21.40625,4088.692630745302,93.875,2483.0950413496057,48.125,5933.881317011236,87.75,3903.404275437019,-72.1875,4120.000443245577,-31.0,3389.9942570010353,21.375,2604.06852048386
C,22,606.0,4758.336684178622,-249.5,2842.404923651801,658.0,4861.345492762266,173.6875,4651.33132445365,59.84375,5704.980363185831,-80.4375,2326.8380763589353,682.0,6327.576155211409,-250.875,2176.426023179975,731.75,6260.123396347711,217.25,4010.86599127919,88.75,5040.276015507484,-45.21875,2648.423678983111,880.875,6549.855550649571,-177.0,2191.8072451746298,656.25,5147.951139773959,122.1875,3418.447943123275,144.9375,5784.0526338453865,-137.03125,2566.984277371686,744.0,5054.851530955188,-335.625,1872.0794212252322,544.375,4595.825536220343,145.5625,2585.1241621233107,20.71875,6512.922664952229,-130.03125,2855.5293345146074,82.75,2388.1742895986467,31.875,4194.962870440571,155.625,3526.0340836944556,73.15625,3620.842090499935,-64.96875,2366.606345122365,-20.71875,1417.5507538174559
C,23,512.125,5664.194954658164,-112.75,4499.031611080322,533.0,4765.54351569682,39.21875,4081.8628080079366,19.65625,5485.629548017797,-23.28125,2730.5909872495436,581.875,5979.413849565441,-68.75,5127.440827303617,578.125,6270.187316530105,92.21875,5743.845454780137,59.5,6161.728202176724,-34.25,2520.6208684568173,650.375,4628.368919973321,-10.375,4926.3516784102,347.375,4344.415853641891,77.53125,4455.6681316075865,16.34375,5673.5730343043915,-48.375,3171.2156457540063,508.75,2693.5683465432985,-124.125,2251.6066451258753,295.25,2502.693436579878,19.78125,4608.561907840496,-38.6875,5286.699380506116,-69.3125,2765.817515192163,-1.125,1630.240544942678,-51.375,3733.124443328269,-5.875,2728.5457636578135,-98.0625,4632.436149974844,-19.96875,2717.474752462925,43.125,1935.7693682035058
C,24,579.5,4521.597477662071,-230.75,7646.514790249215,587.0,4264.910081115428,57.3125,4418.524389130805,68.0,4605.68465323018,-73.75,3716.931303172013,675.375,4974.621504132249,-221.125,6607.036721131115,695.625,4264.14509126683,142.6875,6165.078676695355,106.90625,5072.551110877143,-22.09375,3120.8329052451586,811.5,5485.067798122463,-176.5,5941.301014929306,351.25,4523.5959631138585,129.0,7190.043636863409,183.5,5328.578474837355,-103.4375,2884.9931643928985,668.125,3264.049399806167,-305.125,3012.7481199687104,309.875,4297.290656259476,124.34375,7029.871307540839,58.15625,5705.991845799987,-26.75,2290.376388282066,-30.75,1865.5603548263991,-72.5,3408.4538650244335,44.5,3052.3026963261686,54.71875,6965.374919173299,-138.8125,3686.6249168234826,104.5,2013.3821979445433
C,25,559.125,5709.203949271299,-144.875,2407.1679904765683,536.875,4817.971537314745,98.1875,8152.372723774579,81.96875,4699.750814434042,29.09375,4298.745662685912,622.0,5506.407449508254,-111.75,1630.5627671144707,552.75,5770.455219261302,132.9375,6965.595734292491,109.125,5796.47375969865,10.5625,3215.9152948412293,714.0,5058.221228851106,-8.5,1893.613939006576,253.0,4199.237549841638,97.9375,4631.153979689485,179.96875,6963.965839790818,-63.1875,2973.154001198685,582.125,3280.238556016163,-140.625,2113.2555712395506,283.375,1581.223295229045,83.09375,3216.85323102577,86.3125,6564.467968909876,-82.25,2559.3439955387007,-0.375,1678.4085793915021,-30.125,5540.611065972326,48.875,3926.055493033052,-14.21875,2821.7356442265173,-52.03125,3894.899882252872,47.3125,3043.7890596826433
C,26,455.875,6317.357238939001,-139.375,3315.726332099047,409.125,7271.514645132402,174.53125,10073.029450543836,46.53125,6836.558189178488,12.65625,3599.1612617505675,610.375,5730.706924924271,-159.375,1477.693848324138,571.25,8442.383634821388,165.125,9176.366865997403,48.625,7378.599370603814,32.40625,3687.1337941836255,712.0,5316.675559031226,-64.75,2552.755459792418,341.0,5839.855820138028,79.65625,6733.077196801321,84.75,7473.18248807026,-96.78125,3115.9026955921518,540.5,2891.2725139633585,-243.625,2973.2338218470136,271.25,2193.231049730055,120.40625,4985.920080959074,44.96875,5236.805989128625,-55.71875,3226.9263261885044,8.625,2310.887515517577,54.625,6229.307233503177,123.875,5832.531138740281,2.53125,3982.607123358195,-43.46875,3489.2531344864387,11.3125,2289.1787615526555
C,27,526.5,2553.1295991390643,-134.875,2718.6070393447817,578.25,3962.5061435283606,78.625,9790.906692404693,107.84375,7889.49278752037,-42.53125,3248.406032044553,624.25,6544.263742966049,-131.0,4031.032746083812,635.625,9144.020196793914,150.46875,10245.879757201108,115.25,5154.953146004336,-61.84375,5307.909022801346,701.0,8451.395624392459,-56.125,3011.8055190159607,331.125,6494.7455480853905,142.15625,7675.4641802197175,138.875,4266.98852932311,-131.71875,5807.3086991435575,563.5,5014.384782802373,-128.875,3081.106900835315,315.125,3061.1123361247296,131.03125,5973.914658142802,39.6875,5909.223216916395,-126.125,4387.833582404305,-5.0,3481.1025552258584,-34.5,6472.287366148076,79.25,5937.124846042906,-83.21875,3966.23258532558,-86.875,2947.5208518134355,54.25,3611.3809945088874
C,28,516.125,4415.3958468494075,-44.75,5066.944585990654,456.25,6735.604867975852,100.03125,4798.363767241229,12.71875,6118.979046961056,-296.125,4168.55470869401,656.625,4276.485719533622,-67.0,4390.412736861991,503.625,5519.0090015667665,175.125,4328.585325701112,-10.5625,6470.795912876078,-187.3125,3354.2402030629455,748.5,3335.507869875291,-17.0,3175.9323040644304,343.0,2585.2059879243666,58.53125,2689.5219485111916,58.625,4824.845747210475,-231.96875,3736.218287623655,624.125,4506.52865123201,-143.75,3124.952789643389,394.75,4340.271816084794,32.8125,4044.061961981264,17.59375,4057.0825251910933,-206.71875,3930.460765247306,75.375,2857.540395055685,-6.125,5070.227409532535,104.75,3812.844402476975,-111.0,5031.95862711529,-63.03125,4884.5625410852745,37.53125,2686.7773677816026
C,29,502.5,5465.025320160923,-81.5,4657.756729370911,492.75,4098.229061131161,71.78125,8097.023804052847,11.15625,6515.1523826642715,-11.71875,3262.2116849077156,628.875,5622.188696084026,-114.0,3575.5279330470908,507.375,7054.638269208068,116.46875,9469.278450548565,55.96875,5580.508279294409,-1.65625,4289.188141488543,709.375,5638.440707267835,-14.5,3326.4618966703947,224.0,5481.613813467709,86.46875,7943.48474767362,98.9375,5613.694143217436,-53.84375,6539.655706291879,567.125,3979.1924726475595,-97.875,2702.7659877198025,225.25,4176.034534998484,84.6875,7502.91807581182,9.65625,6520.681773256991,-44.53125,5321.492254201206,40.875,2688.0817945841977,-19.25,5085.478978178949,49.0,5005.5700974014935,-17.75,6873.815307018366,-13.46875,4020.137575260757,60.25,2873.3490694658035
C,30,397.25,6995.264143511666,-201.125,4586.815587569987,444.875,5833.84536428375,54.46875,8464.196159354025,-41.5,6387.9441479634115,-24.8125,3935.216595353266,541.25,6712.33725594148,-248.875,3122.952406677854,601.875,7401.481877595526,90.84375,7899.282440154671,-23.0625,7331.494228402131,22.4375,3476.7379281581966,735.375,6214.540297509945,-97.25,3389.844013741635,363.25,4761.01401357946,70.53125,7827.410471319582,9.3125,7838.457634627092,-28.78125,3339.830700559302,566.125,3875.909181646933,-195.625,3109.7844554526605,372.125,3198.906295028818,82.03125,5980.1643501891685,32.90625,5990.410714004586,-35.84375,2712.3305374411757,39.75,3494.4660446912344,-39.75,4247.604140865766,132.75,5789.048405178523,-11.375,4449.956985396038,-17.125,4659.918258067946,52.3125,3102.061405717777
C,31,491.625,5452.72513147096,-210.125,3909.045917404271,586.375,4679.958531800789,18.28125,8004.654119769851,76.8125,3821.060540261532,91.5,3801.792537737955,594.125,6156.266074852109,-175.0,3524.5237976214603,674.75,7180.14362234489,81.15625,7669.66436321277,150.0625,4638.557756306775,72.21875,3649.167753871893,768.125,6012.25485856804,-38.25,3492.9629167083926,413.25,4672.5383291632825,120.1875,6013.512152007656,236.375,5776.785696594171,-7.03125,3514.6877927169344,612.125,3295.344668524827,-147.5,3316.0868127960703,422.125,2091.078665276608,120.0,5161.690632680343,186.15625,5553.74575798496,31.125,2535.4872405269566,47.25,2277.973756982288,89.0,4604.906730868715,115.0,3998.4645803107974,-55.75,3761.0161525842987,33.6875,2160.019638763442,-119.59375,3379.524031385328
C,32,551.0,4600.76591449728,-6.25,5949.354245420254,501.125,3743.4489757942474,111.21875,4810.641873326099,-13.5625,6640.099561271182,-126.375,2974.4767370707405,688.75,5036.44253789319,-6.125,5149.809024068271,589.75,4674.178744710133,216.46875,6230.639929936847,90.03125,5526.406673216642,-62.59375,3490.7610457765422,799.75,6301.935412038115,128.875,4826.944036797506,297.5,5522.561792320662,103.75,6274.623609229481,198.75,4042.3295573221144,-193.0625,4578.677087444991,664.125,5207.304243500182,-133.625,3826.891148095932,368.125,5863.514090063654,98.84375,6243.69966000415,371.53125,3764.6718564203493,-26.40625,3574.95318902373,-15.5,2172.528423289325,-59.5,3748.6074414374198,56.0,2412.8907973631963,-210.84375,7179.432303067976,-37.3125,3363.4459119099492,179.21875,2176.550549814646
C,33,482.5,3759.753815078854,-140.875,5030.859244142594,486.5,3353.9886329562896,14.15625,6231.150736969532,-53.59375,4598.562308342786,12.8125,3290.5789330821026,590.5,4234.842116301385,-113.5,4656.648123919178,592.25,3822.9276657425785,7.71875,6346.510528601401,-19.90625,4040.6414973319443,1.125,3588.66428624565,724.75,3895.854519550236,4.625,2830.6437623577785,318.625,4053.0078471889246,-2.09375,6268.25642802374,9.59375,4045.3647383407765,-29.3125,3717.887609563225,555.875,2633.622122548146,-127.75,2066.146881879408,325.25,3334.592394506411,-32.78125,6452.946583414312,-18.1875,4483.36722256205,-28.6875,3396.8766116601514,4.125,2040.7254799151697,17.25,3184.809796125979,141.5,3675.4018487778994,-85.46875,5735.908820668564,-14.21875,2550.075890223355,51.34375,2804.7169154098133
C,34,489.875,3932.7163620549854,-238.75,5478.334732151733,524.625,2544.5673717500586,168.53125,2882.3645348087803,291.65625,5171.546169965607,-172.5,2627.2053236281326,598.625,4347.310733013572,-222.875,6690.490283557327,597.25,3066.3345279828814,263.90625,2436.4027319925863,458.40625,5127.274140926243,-68.3125,2522.3235374043015,724.875,4231.31477609206,-176.75,4498.8726851845895,284.625,3677.9199433069502,108.15625,3038.5456853297333,389.5,4408.907049938794,-229.65625,2810.710437431422,573.375,3718.0406949595103,-215.875,3328.0140450988183,232.5,4528.460638009345,205.03125,3890.7339240525607,319.1875,4149.96025159805,-43.84375,3181.889426007123,14.625,1643.5052812129932,-64.625,3564.3550762199607,68.625,1899.032940571332,-1.6875,5255.289231083647,-81.59375,3119.808376120389,65.625,2011.4746417429676
C,35,458.125,5718.662167358289,-316.75,4417.022123274911,484.375,4307.55015749962,91.71875,8485.842169587439,115.125,4629.147935568165,52.6875,3920.2140043425884,559.625,5705.738020569732,-281.375,4487.348394026811,552.875,5549.146847432946,141.875,10135.64244618342,85.4375,5388.358707305384,55.125,4381.572482782294,688.375,5623.372507612758,-165.5,3036.441955644797,236.0,3351.2393229967925,205.0,8217.657166887653,156.96875,4582.639758400548,6.4375,4538.3885833623535,508.875,4132.114680690142,-143.0,1831.248481228039,167.75,3088.040792719552,228.5,6988.654537892111,85.15625,4632.715612287888,32.0,3832.2922888918583,-12.0,2971.074553086812,-55.875,4573.128413282859,99.875,5422.4242257845335,94.8125,6321.4074304970845,-120.03125,2058.889134405599,68.0,3880.941557792387
C,36,424.625,3694.0211300661235,-151.5,5999.973812442851,501.5,3887.9184340724023,101.15625,4947.50979097929,87.96875,6719.760679724646,-56.25,2870.4359533875686,562.625,4592.257136678541,-145.75,5176.528657073193,603.75,4035.168266318023,186.65625,7927.526539727631,276.34375,5957.419746676067,-20.5,3665.3736934315443,680.125,5899.849530655421,-61.25,2402.652583604213,403.125,5258.316055009912,129.3125,6474.578197832177,415.9375,3998.722873755288,-117.53125,5330.438636878154,549.125,4968.090401187865,-176.625,2029.6736460266218,357.25,4103.396938817887,107.84375,6341.498778430532,426.65625,3458.9096964341143,-12.375,4953.328569949202,69.25,1730.6159127605408,44.875,4847.556161033619,109.75,2727.312768550758,-118.625,6694.317369745402,-52.375,3786.645082969224,34.625,2498.8930643136773
C,37,436.5,3246.3092505181944,-71.625,7017.235521156105,516.75,6402.486894754256,131.1875,11274.554562812837,18.4375,5418.274921143606,-37.59375,2349.538024529703,593.25,3135.992416684071,-102.125,8436.613419161447,667.0,6336.041035220653,164.8125,8583.808079887605,49.28125,4908.294575476133,-6.96875,3569.7740604656533,741.25,4086.4904793110677,-24.625,6581.661272761991,455.0,2915.6273767407247,82.875,5149.095641166029,125.6875,3801.0904803547824,-66.84375,4346.947687094467,625.5,3375.816604912062,-107.125,7119.918871333788,426.375,4458.308295685147,47.90625,4512.4453830446455,32.6875,2683.4867411343307,-58.40625,4242.703286668882,1.25,2195.1925741264704,5.625,7887.437217460118,21.875,5138.323557773975,-80.8125,7050.171125748917,-29.28125,3979.753535352213,45.3125,2466.242947753475
C,38,481.625,4881.488590519802,-83.625,3226.1150567478217,502.125,7523.716833080243,34.8125,6921.508675125948,33.09375,7024.015751154103,4.46875,3487.895963044689,655.125,4918.206556700827,-97.75,2632.3931958391017,607.5,5013.544030922637,51.0,4709.669043574081,73.03125,6970.341470672254,-0.125,3647.7709867636977,802.125,5298.858083056669,-69.75,2722.8268284082997,407.25,2658.6335658567164,79.03125,4189.416206976031,157.84375,6290.955258888425,-23.625,3898.7185054034103,612.25,3939.6740902643205,-107.625,2932.8500403830744,306.0,2738.095140786748,89.9375,2789.5062504130997,108.53125,6720.596439232417,-25.875,3237.096989877659,17.875,2247.9377180818424,-81.25,6338.140771354009,-30.625,3636.653490418767,14.53125,3387.425921555103,-42.46875,2606.0383485327757,10.625,3262.6928463119234
C,39,430.125,4846.2224447888275,-82.5,3847.662374741318,433.625,4102.837171930541,123.625,5109.05361068711,20.25,5551.549231971198,-21.15625,3412.213423034371,569.5,4796.4875429839285,-96.0,2475.077978569564,461.125,3674.726824455799,150.875,5951.0752796763545,-22.28125,4773.994123336186,-2.0,3964.992165818238,715.875,4343.719199531089,-8.375,3020.748145637931,318.0,2402.160277750009,85.9375,3189.904984257956,3.125,4211.636652997858,-58.40625,4746.40886525918,618.625,4356.901950856251,-128.25,2819.7428849985595,371.875,4291.904878299961,66.46875,3471.8508031053752,4.59375,4201.656621644722,-54.65625,3724.9466406360693,72.875,2413.140222692208,87.375,4238.355118365496,66.5,3528.9516502780257,-53.75,3706.4947642617817,-7.84375,3473.690311734185,11.75,2218.864166076869
C,40,478.5,3349.7609989370885,-270.5,3985.8469300764673,520.5,4253.1393993143465,202.84375,6467.76199754103,146.5,4831.294443521322,-118.3125,3801.342241872435,666.5,3772.9678967624413,-313.375,4160.273021013765,664.75,4732.255111202269,292.875,4871.8915394202895,352.28125,4649.082800902608,-28.125,3670.8670531463,816.0,4053.2532612705068,-247.0,3687.47067784952,368.375,2704.626658038961,204.78125,2623.3609494117345,312.15625,5354.966106973595,-177.5625,3238.624639965822,671.875,3253.8261300160157,-281.25,3406.3394483668244,262.0,2637.405732912553,239.59375,2679.935433683233,197.78125,5173.271630061429,-92.03125,2849.086525585602,51.375,2474.319928662217,101.25,6426.148880744983,156.25,4055.171012115272,44.9375,4463.409486714584,-155.46875,2970.54465738582,66.375,2120.169874532463
D,1,546.5,6193.104855401691,-302.375,3758.194228532501,97.625,2605.278652922754,309.65625,3094.43406184167,585.03125,8242.133713746303,-90.46875,3701.0529581489964,670.75,8956.603900893462,-184.25,2558.938439568252,203.0,6191.204714148936,274.4375,3513.8580820934912,646.71875,6120.9747448546495,-145.4375,5309.33197267733,609.5,7044.93702952695,-106.125,2256.598986168123,-20.25,4592.79576483649,279.9375,2901.4192210181814,621.9375,5880.557025792178,-268.15625,5287.074209270751,-5.375,2353.8287128368115,-201.25,2004.9806576373749,10.375,2730.003087795873,537.90625,5227.650657557459,126.15625,3363.2717061420917,-8.78125,1595.498290785182,-69.25,2298.414113579187,-6.75,4058.0871648474977,202.25,4117.150584749117,283.84375,2986.2345029879916,-45.46875,3132.716043870468,78.59375,3593.193120848215
D,2,685.125,5108.2590218561745,-422.375,5032.531257664974,377.0,3629.3007590994716,23.15625,4266.075824963257,34.625,7197.48210205312,-29.09375,4906.207728221558,716.125,5897.581664070028,-381.375,5309.053362829855,559.125,4715.493901424855,45.03125,4838.450413642103,84.0625,6908.619905313488,-26.4375,4470.539494411581,861.0,6605.150263241556,-291.75,4898.640723455845,352.625,4651.463114910726,21.65625,3613.454290991646,106.40625,5845.587838593389,-45.09375,3900.48219262195,36.25,2832.9946942237643,-251.125,4028.0089044557735,24.0,6441.444403237522,54.71875,4590.38370696268,-61.59375,3068.8132871210883,-47.3125,2445.0093869643424,10.625,2717.384516290435,57.75,3740.399569230539,298.25,2814.0929155768827,-31.0625,4724.280163008302,-11.40625,2672.1687102821443,-7.78125,3170.5390781219585
D,3,702.875,6404.495236501859,-375.0,5375.025767380097,430.25,5198.135717495264,20.96875,4847.191193647454,57.96875,6924.9057596673065,38.09375,4359.687878445077,768.5,7697.6971718819905,-335.875,5120.482837035488,452.875,6521.696538047059,63.8125,3845.761558500962,79.78125,7772.406242335666,40.28125,4323.927260274904,845.75,6688.044627355592,-215.25,4813.982700166256,201.0,4683.131751296348,66.40625,3264.379399857029,104.71875,7978.334119798972,-45.8125,3903.447974527616,-18.0,2376.5578048934553,-232.375,5238.821084879211,-112.0,5028.483170897562,86.625,4874.472457033171,-70.96875,4876.915376831285,-38.1875,2403.785197837725,-45.0,2076.161120915234,-8.375,4104.0865438456585,208.75,3075.062021732245,2.03125,5327.643894609834,24.4375,2907.9179293084853,-20.9375,2629.5953222109574
D,4,813.25,7132.002975146604,-313.125,5882.95301990208,352.375,8912.948970984575,48.0625,6690.1664447600815,32.0625,8955.818380868035,-44.3125,6124.703142997524,805.625,6317.891092712425,-267.25,3848.0719116851233,443.75,6220.273140104058,88.84375,9300.550289866505,100.0625,9558.72855018353,-46.1875,4739.103478227053,883.25,6651.14647542061,-155.625,3217.352072648407,237.375,6664.193095144753,59.375,8892.236047354738,82.15625,7045.810732757156,-116.09375,4772.990502291089,29.625,2957.0535773595648,-219.375,3989.463636803198,74.875,3837.0229650570245,63.65625,8319.477310840262,66.9375,3797.0787368177857,-88.375,2175.3595643881495,-4.125,2041.8220991004578,80.5,3656.490359620821,280.125,3889.2380339052274,-66.65625,6286.465668448841,-29.5625,3545.114172504709,1.1875,4572.244275500135
D,5,911.875,7587.588515752222,-420.75,10314.890568372502,770.375,12605.480707191417,305.90625,5961.180196484664,734.40625,10952.721025672614,153.6875,6861.524677675054,756.0,5229.507911840272,-248.125,6396.907181159892,681.625,9271.41536440769,509.65625,8534.487834696698,897.84375,11129.221334254968,-37.59375,5090.065924544685,739.25,6254.691474205582,-278.5,5406.128813670647,229.375,7365.329837106754,269.6875,8641.829195248176,597.40625,8084.967860400618,-159.34375,6601.0662567183745,12.5,2859.4803286611364,-311.625,6533.244780304424,45.375,8372.446871098973,305.03125,12663.773668629483,-1.65625,2082.176304515527,-114.28125,2032.7273125405773,131.875,2574.3584607383254,121.0,4843.155169927967,177.625,3949.590087512247,115.28125,11771.57190340986,-184.65625,5559.175296353402,-18.5,2351.75981979453
D,6,804.625,5063.895843061447,-239.875,5005.905860518654,431.0,6043.500972118727,83.0,4863.386095355786,49.4375,6737.7138506761885,2.5625,5672.693875804841,753.0,6030.457113685496,-210.625,4993.36746188131,525.25,8091.236926453211,83.65625,5376.3236545139225,51.5,6122.29305489373,-21.1875,3853.484960375965,840.5,7596.036186722651,-152.25,5492.752673978685,335.25,6747.036937611947,45.3125,6153.7488088435775,83.125,5342.152672085945,-37.34375,3949.013259737923,77.5,2423.985715716988,-183.875,6551.153294220416,154.875,5813.367890850794,53.34375,8018.977002279402,-43.3125,3029.7377200582478,-69.28125,1660.4512043864577,12.625,1727.2883689109356,19.125,3372.535801792918,243.75,3713.1242825281247,-18.21875,7980.332248465501,13.78125,3861.992294580407,4.1875,3493.8497788748373
D,7,764.0,8264.782755765575,-318.625,4280.980566339329,496.125,6506.011257627441,3.34375,8988.593419611654,129.15625,7070.8447122204525,-65.84375,5373.703774570751,778.625,6912.894083477267,-306.375,4104.21026013227,614.5,9845.088559784519,34.65625,8618.966123502629,117.09375,7674.748079576354,-85.5,5623.715931214876,882.5,5951.615557980875,-188.125,3947.7625922001694,341.875,6733.568072305722,-13.1875,6665.132671398504,149.75,7411.098353989104,-115.34375,6000.142178572599,86.25,2770.342386330614,-260.75,4797.443218788525,121.75,3525.792100720064,105.90625,7037.783406191252,39.84375,4348.262175207003,-31.90625,2324.946926267552,-2.625,1741.3697509073138,-61.25,6917.356390811449,152.5,4018.525195889656,-21.65625,5019.329646535077,-6.9375,3818.9841248810853,-80.53125,2218.4712076165056
D,8,822.0,9359.929486913883,-360.875,5327.271133927295,495.625,6589.7286256245025,130.625,6418.8747298007775,69.5,5565.926366068815,90.84375,5321.51394758446,816.0,8467.006732015749,-284.5,6557.780779349063,605.375,9765.495259938178,228.6875,4428.153406313262,107.09375,8169.259912774286,149.71875,3669.485226451857,868.5,7381.916197709102,-124.375,6462.483219272217,358.75,7350.116015240847,146.78125,3810.7918692705375,195.84375,8612.13050045318,-14.625,3885.0276281997017,52.25,1879.9465251703305,-157.375,6852.680177082176,61.25,5524.501465064517,91.84375,5427.1472254616365,112.71875,3526.3552823203217,-39.03125,2267.779868125087,-61.0,1653.1648435652144,-131.75,6314.928735741995,161.75,3752.5296717680994,-50.75,6251.297155391031,-79.15625,4774.416660110001,-29.40625,3315.5419321297895
D,9,730.625,11746.370656903988,-342.25,10391.833713907281,347.0,13717.521860744382,73.34375,8641.425806866939,-30.9375,5665.116839800725,-63.375,7925.891056964826,781.0,10891.001331374448,-320.625,7252.771615691136,529.125,15484.635715262242,54.21875,5646.496257273039,7.46875,10525.024343749683,-22.03125,6506.503609295351,932.125,7241.1464896365,-190.125,6729.287553996708,372.625,6917.469993384503,21.28125,4881.67195509371,39.75,12862.599205156786,-46.1875,4595.345909433125,97.0,1430.5533894266232,-223.875,8308.657983355375,119.75,6559.390668156609,67.15625,7050.191487245998,-47.53125,5990.760104028824,-33.34375,2231.2449385009118,40.0,1720.7358890893163,134.75,7295.279805291912,192.125,3624.450507921856,20.53125,8060.164526020759,8.59375,4138.729091304593,26.5,2756.358603302553
D,10,784.375,7299.911393939998,-310.25,4970.29012608922,464.625,8982.809867150423,141.0625,11626.164460327995,181.8125,5469.419864331477,-62.3125,6324.9154512012055,766.625,9336.591916185209,-279.0,4989.3158849686,592.625,14511.79297104169,248.375,10721.79417049101,195.28125,4306.660156333262,12.28125,6317.03529768106,873.375,8450.510139001964,-156.25,3319.3660445181395,335.375,8180.282703511842,89.46875,9215.920823445882,191.3125,7977.192431541548,-140.875,5003.231566635208,144.0,2411.573345349463,-238.625,3889.2082239673155,224.75,5494.064382358474,133.375,6093.647505548299,65.21875,4385.228177746107,-63.90625,2441.254702496431,-23.75,2446.3374537254667,-28.125,7555.172101572207,235.5,6037.754528796281,47.96875,4232.761838359612,-72.5625,2430.575702604992,-14.625,4142.1275160688865
D,11,715.625,11607.523911643473,-299.125,4354.824994689798,513.375,10576.130795776638,24.0,4149.581560229899,-38.3125,6960.344874885422,22.21875,7157.632494121114,764.875,10099.185003473052,-230.875,4158.90204673962,667.75,13511.503762997663,44.5,3993.6796237930753,47.40625,9335.427962402739,60.9375,4510.853999919943,929.375,7413.60962078359,-140.25,4268.271305517024,517.75,8137.980703927726,15.21875,4216.829464585738,154.84375,9361.533314945578,13.625,3875.256489495244,196.625,1927.9538659872026,-331.0,4447.8312692816935,306.375,4115.328159378666,10.96875,5786.47315126178,46.65625,4008.351754535265,8.1875,2506.796305016375,27.5,2351.032273279123,21.375,4258.136988094089,221.25,3737.148169058861,-13.84375,5683.156072494925,35.84375,4030.8106590778903,-48.40625,3708.692945797877
D,12,826.125,6874.46601448978,-248.25,4165.047771334682,389.375,4967.557811377236,48.625,3402.492732817368,48.84375,7238.3429565637425,31.71875,5334.240575250467,822.625,8911.641465486311,-174.875,4936.2577155548715,503.375,8765.716266904548,100.53125,4314.965671824451,146.5,6485.440911187149,37.0625,5789.764383901451,889.125,9086.509463725606,-92.625,3391.9574156193353,264.75,7620.732067852799,49.09375,3956.7028442202904,161.65625,6349.150128212904,-35.78125,4191.130327357816,89.25,2528.130225581744,-148.125,3039.1504543827705,220.125,4591.049932681522,50.1875,4396.281215680333,108.9375,3713.6707576323656,-10.15625,2299.6654934655035,-16.125,2462.775971211145,61.0,2545.7452739816686,168.625,3547.1708599072304,-76.0625,3786.1914483546325,-58.96875,2549.9456916321647,-108.03125,3534.8286422786377
D,13,773.625,8346.741990703618,-302.25,3404.864011601638,444.5,4843.870121091192,106.875,3662.868383777255,181.34375,6064.036751668474,-38.59375,5595.110453888371,792.25,8737.845783572746,-170.125,1884.2425492422678,596.25,7496.673191322935,174.25,3986.9810398972304,232.75,4834.566390846236,-59.90625,5350.850121472376,852.875,7200.0611618496,-106.125,2639.7880567149705,348.125,5669.243113888749,107.21875,3190.5563262381747,309.96875,5364.614510174374,-115.46875,4309.315512529041,43.875,1433.179152923667,-115.75,3531.4550736912965,132.125,2513.122855010276,125.8125,4720.45575419829,17.03125,2969.3168351951663,-53.25,2019.390780656384,17.5,2634.6688122039172,91.125,4666.791374635789,296.125,4552.502551825205,-164.90625,4517.069081269506,-57.84375,2890.07648157206,-40.65625,3581.6920809983008
D,14,722.125,8340.17098052402,-326.125,3754.081110521588,479.5,7334.440997785721,89.71875,6351.259895851251,76.3125,8333.10625396339,-26.09375,6073.8348849767835,708.875,5532.280156895075,-288.25,4447.173364902699,635.0,8339.208475628848,120.25,5418.07432350277,109.1875,9647.811984581984,7.46875,5017.01613252573,830.125,5111.680348415284,-236.75,4703.896410158285,433.75,4215.4061414649,114.875,3923.4973616500624,173.3125,8513.237957871479,-18.6875,5384.316178944523,96.375,3063.564485917507,-226.25,5624.40751879698,243.875,5848.62218683811,108.78125,5639.5688982756865,16.75,2841.1494812839396,-24.0,3293.038585410138,15.875,1947.7834798495956,65.375,4050.4048698093134,233.25,3279.2867269423086,41.65625,4677.7068808429985,-73.5,3522.481112440491,70.28125,1900.1651447041222
D,15,650.5,8601.374410523007,-350.875,6624.623478687298,519.25,9803.413968485673,17.90625,3583.7309587859604,38.375,6923.647199769425,-96.6875,5745.6666249308055,690.0,7056.533213979794,-233.75,5202.804141758557,645.875,4638.398105421203,64.28125,6548.313610361712,83.5,7610.488404169603,-36.875,4278.63763181401,757.5,6542.930746232914,-170.375,5898.841060697855,338.875,6035.499004587359,-10.1875,7185.58743874457,36.53125,5343.207896388034,-101.78125,5054.880134177114,31.875,2215.0021409414035,-199.875,6061.198601297849,59.5,5803.951649522935,58.09375,8762.655267381055,-118.8125,2639.045121316373,-110.5625,2038.6032433001155,29.625,2885.926343373129,-12.0,4451.25723812947,230.25,4621.3268589767595,-55.625,8528.3729205444,-27.53125,4320.111413380844,63.40625,4859.458353686236
D,16,659.5,8200.839697860214,-411.375,5301.090369855527,461.5,6846.676109616987,75.46875,3189.7084210823155,90.3125,11306.419074019137,-9.8125,4805.082299226908,684.5,5742.224982530726,-397.375,4540.18486511012,539.375,6247.412753242337,171.53125,5186.275994056182,88.0,12737.012583902868,12.0625,3715.32274790411,805.5,5395.58001979398,-241.0,4912.84479706005,285.625,7356.238839201389,91.8125,5310.136247295709,73.3125,10932.07743419995,-86.65625,6207.494641607509,40.875,3206.3464775933057,-217.5,4137.824760668339,64.5,5590.998546771409,83.625,9364.546073989652,1.28125,2271.9135414113885,-98.3125,2254.5708216518174,-12.75,2236.489981533564,-32.75,2792.0765457809352,222.875,1810.9503677282269,-79.59375,7797.773800336282,-53.6875,4218.177616263183,-86.125,2256.399880755847
D,17,664.5,9520.381176717663,-399.875,4587.866550410441,398.0,9113.28837467574,-17.875,6818.250429683189,-55.5,4870.263519564419,-10.03125,6393.5267188988455,687.5,8413.710581544863,-384.625,3946.9265396476535,560.25,14731.93807684515,16.125,6650.164056951903,27.75,8384.203059176227,53.59375,5742.9473261741605,796.375,5004.750679042364,-285.5,3111.3316682732493,328.25,6185.00347109846,23.25,5782.24976760776,59.09375,9388.454716297083,5.5,5162.86348599302,92.25,1528.6624668317072,-340.125,3271.505385044475,143.75,3059.104270452382,29.65625,6137.301130227027,-31.28125,4670.365331229286,1.875,2628.4199596668336,32.375,1336.014355976387,30.125,5199.800283123863,270.125,3595.2674426772483,-38.65625,4394.630968646394,12.4375,4833.283258675592,-49.25,3218.838785183253
D,18,674.625,12758.669899694678,-288.0,4328.023567403487,455.5,11564.966137001871,10.46875,7079.008056325649,27.125,5866.773505034517,15.125,5101.0624245714735,692.875,9073.710692675571,-229.75,4455.019521562167,554.5,15944.082203516764,31.25,4528.681547923192,36.21875,9271.848880935153,-1.25,3622.0230793715273,764.0,6619.815631873746,-139.625,4638.919848345626,308.125,10186.269998599832,11.84375,4173.566611045754,57.65625,9600.252886022636,-2.96875,4789.121282163716,17.0,1861.0188069979304,-201.25,5126.5672176906055,58.5,3607.021451280821,19.25,7396.120423066406,-12.3125,4547.361531959357,-53.1875,3185.691510856591,20.375,1675.829752503219,-10.625,6061.057053796392,218.625,3035.783524788123,12.8125,6109.913458048629,-63.15625,6496.886307635061,-3.21875,2862.8315172043285
D,19,738.375,6141.825205863075,-292.25,7022.608627675331,583.125,6131.425342803662,10.78125,5504.577235891821,95.40625,7281.234308392426,36.75,5992.228112313483,736.375,7796.511935434653,-206.25,5526.524308957665,560.875,7189.28930662656,48.9375,4293.204193384441,103.40625,5169.675103786594,-0.46875,5888.897376548808,770.625,7150.660012150976,-65.875,6315.662592663972,257.625,5807.096336326357,45.0625,4606.76490295454,103.65625,5618.477049039708,-42.8125,5055.311874884056,24.75,1737.3236421288925,-110.25,6473.830237000349,100.75,3671.9201295099,85.3125,6863.594896433191,29.78125,3132.0157021315263,-59.625,2922.6600656550872,8.75,2844.4276115767125,57.75,3211.525640174775,214.875,3901.3863221135894,47.375,7365.376711979843,-72.28125,2987.0448317941996,-3.15625,3698.156915185717
D,20,748.125,6773.832259834532,-258.25,3361.9931495319856,408.625,4873.1172886946815,88.28125,4726.605403420984,67.25,10432.303913206324,-12.09375,4102.802223476162,787.5,2725.240860914866,-273.875,5219.763498892934,512.125,4514.35349572616,119.3125,6425.590899080314,69.4375,8870.05484388872,-41.96875,5453.425228035444,850.0,8004.768828642086,-213.375,4946.097715307998,283.125,9484.493636819785,58.875,4529.398323384134,152.15625,5460.071520304101,-95.5625,6869.506623193091,173.125,2587.2729338774834,-239.5,2720.1326713967464,258.25,4660.429587226911,119.5625,7447.194769414437,153.3125,1771.3896458271822,-36.625,2940.4307799836065,23.25,2569.2552301201995,101.0,3605.7931166388344,175.0,3532.6039970537313,1.0,6027.425206918789,-74.03125,3960.0612486138943,-176.90625,1989.0924965825338
D,21,617.0,6557.261318568904,-264.375,2716.708552527304,421.625,2883.768343569747,23.71875,3108.3309652687303,32.0625,10038.828342794479,23.5,4129.790801299746,712.75,5421.019593904822,-210.875,2880.3245015753,430.875,7998.200562274929,23.75,3829.4025317273713,104.9375,7831.24646822546,-0.3125,5382.5444809907285,801.125,6665.26145281451,-148.75,2881.867873012224,228.625,7940.893281575757,25.90625,3896.742472561016,184.375,6130.524726471218,31.90625,6922.556813415181,101.5,1918.931929485775,-168.125,2068.7596487690394,141.75,4136.669909178155,15.75,6790.8665223960925,85.5625,2601.318186726443,2.375,2519.3981517169927,74.875,2462.1316444038894,65.75,2147.8656702643207,180.125,2691.677448056323,-37.46875,5362.542569670048,-19.40625,5884.1944534669265,26.4375,3921.0870777239506
D,22,650.625,7700.436390840132,-315.0,4375.657664854507,450.0,7208.438249718173,114.34375,9626.716962474067,84.34375,5620.584420288155,21.6875,6161.29801379902,752.75,6786.110184597654,-244.125,5168.877487847337,522.5,8977.806065515115,126.25,7544.604769303691,95.5,7871.554849583404,24.0,4185.603361523879,822.375,3953.1130592705035,-92.0,4362.638536482252,300.625,3501.443432268327,80.0,4712.314651527421,108.65625,7241.501689952571,-27.625,3370.3093584825415,-428.75,3200.622507810004,-74.25,5024.025969031211,219.625,4501.045251869281,-17.40625,4074.088370876476,-4.46875,3944.190228871249,-18.25,2191.7497576137657,-8.125,1829.6798857655401,2.75,6933.78867845711,301.5,5376.228673521989,-95.1875,4833.838487924865,-15.4375,5708.806721513152,-27.5,2962.2438918833136
D,23,567.875,5965.017224147387,-264.125,9090.521408828814,388.625,9039.964994919781,28.28125,6675.3354982838455,-74.3125,7372.118362610828,-51.21875,5636.0674162840205,629.875,6055.875988193203,-212.625,8103.064612193031,494.375,10553.84066865589,21.75,3982.73591579959,-50.125,9339.192302301897,-20.46875,3710.037819756483,738.75,5877.424473142977,-142.25,6930.720665089598,342.375,4707.331819552877,-49.5,4095.572350111764,-53.375,10230.646771312897,-30.65625,2269.424164427165,24.75,2676.485090094843,-229.5,5496.961865430758,56.5,3925.24123462495,13.8125,5468.5941717084615,-75.40625,3034.0549894013025,-37.9375,1455.2231774177285,-29.375,1836.9342964229832,-90.5,3442.197081806909,278.375,2818.835727632066,-48.375,7528.927923142511,24.875,3780.309004813628,82.5625,3334.073615128159
D,24,520.875,4391.521004660572,-456.375,5346.033048847996,456.5,5074.860564586972,102.125,8016.124920082957,115.8125,5719.284928191963,42.25,4654.428657203804,541.625,5363.970904038817,-407.375,6101.673385996255,434.75,7004.6479881218875,127.96875,6952.845112274071,64.25,6156.060844809772,31.84375,3563.1046514010695,649.125,5356.183551221429,-287.0,6055.923051030289,189.375,4457.20098373127,119.5625,5772.075189747076,58.5625,6569.288593226343,12.15625,3329.674759918142,-453.125,3524.3304661133866,-62.375,5912.6723111783385,209.375,3555.8433049524274,-6.0625,4841.240923936109,-22.96875,3632.298613519191,-27.875,1831.2327260277434,-111.0,1586.1948177950903,-93.125,6727.850491380958,478.875,4515.78212875411,125.875,5165.788714889044,-149.90625,3163.495805270008,116.46875,2767.1581426661246
D,25,733.375,11583.083639919683,-379.75,5913.502763802517,432.875,11659.774214553856,-21.53125,3631.634764334574,-45.34375,4842.248493787358,-46.96875,6395.946384646562,696.75,9673.57485304683,-338.125,3864.710207036874,663.75,11857.977219998358,-9.8125,4614.6497865324245,-14.375,7284.871583245308,-22.34375,4267.999704262635,838.125,7607.608690276794,-257.875,4954.023211933408,421.0,8241.58170498843,-4.6875,4752.907823358639,48.6875,9045.308412505554,-25.0,2909.047964970671,78.25,1357.8236032342345,-240.5,4280.41326859919,100.5,3321.5625464530995,11.375,5133.594061120824,25.0625,3391.165949359269,-48.09375,1903.3882019863781,-8.375,1968.6326115796721,-23.25,3414.693900996105,396.75,3452.7382520978913,-84.75,4740.56782595714,2.8125,3362.312322248448,-9.28125,2474.2863899816525
D,26,591.875,9155.693555617456,-374.25,6538.381981614411,357.625,9604.813161086216,62.78125,7537.450471372826,-27.53125,13508.664853493976,-48.09375,5813.085714356957,696.125,4812.809209222302,-442.75,6307.472983493469,564.375,9849.169069488806,44.65625,4411.611366676119,-13.0,13095.739538586586,33.46875,5096.132080953499,859.625,4014.839643046158,-305.125,6817.578106217413,390.375,6023.653862845624,18.21875,4140.055341827985,-0.6875,10900.524111360139,-4.21875,6033.955987442934,68.125,2130.6225579334787,-279.75,6589.514089635138,69.5,5020.933055717832,27.1875,7934.819950846002,28.8125,3241.3155068341853,21.28125,3068.99796589187,-3.75,1966.5011918379303,42.875,5489.578238296181,310.5,4275.492340070322,27.75,7107.40261101058,-55.8125,5227.628522078032,20.71875,2187.8486898431615
D,27,697.875,6433.094122144879,-267.875,4270.457409268356,376.125,6160.102635863708,103.59375,7421.519958284215,17.5625,12740.697758407652,18.90625,5515.326646941316,759.75,4314.395199503634,-242.875,5962.254542903632,490.125,6238.920899031738,126.46875,6708.967045046758,54.0625,11585.326557054565,22.09375,6381.096699232894,821.125,7793.967169187653,-124.25,5447.40790996048,306.875,4953.39875584179,63.09375,5553.459250544739,62.25,9433.15528468603,-77.4375,6202.547167986209,29.0,3575.245026568109,-148.75,4634.296757599798,-44.875,5160.012377347074,76.125,7142.271818852528,-115.0625,4197.337712299756,-94.9375,2734.285200668312,24.125,2381.852951879062,-17.25,3405.499587065017,266.0,3404.6999867829763,-21.71875,5782.969718461998,-62.40625,3992.4850098292086,29.28125,2862.0713896841285
D,28,740.75,5833.039125318807,-407.25,4742.364646197085,420.0,5134.201008920472,-100.75,4028.1295364598195,7.8125,9077.758755736118,-78.46875,5312.346774168967,789.875,4025.7096249450233,-305.25,4491.545773728683,558.0,4233.625042442942,-70.15625,6518.736390730641,42.78125,8667.760706831865,-82.09375,4659.56688813037,867.75,6896.9553382271515,-190.875,4233.5272804571605,332.0,7320.832739518094,-101.3125,4782.478916821668,92.78125,6265.359161364849,-105.625,5036.504658180612,111.625,3413.9517218869687,-270.875,4071.697340713698,171.875,6451.951602761369,68.21875,7023.277723641465,98.1875,2138.4935035776352,-21.3125,1981.869484185008,39.25,1721.5622084316326,129.5,3794.716030218862,273.25,2607.230031566068,11.03125,6714.297047552591,-2.375,3734.2661657780905,-168.25,2418.8875283898587
D,29,740.75,4778.976819100507,-361.75,3759.14018593348,469.375,5281.648947949399,100.53125,3973.743614216126,-68.65625,8104.325140046267,86.65625,5218.466337257139,713.5,6275.906129795123,-226.375,4787.606485434554,589.75,7701.788814132728,147.3125,4970.620462009119,-28.53125,6702.45822434004,151.21875,5815.542401263913,782.625,6895.00113193428,-153.25,2803.711546771529,411.375,6824.102879454193,82.03125,4086.4634426082216,-25.0625,6329.49107816685,3.5625,4702.7012579042,21.875,2192.3140706511463,-228.25,3721.6638668074256,146.375,3265.519538966962,27.34375,4118.261697984471,-132.03125,4045.138915139187,-86.0625,1402.5119415155616,-59.625,2241.728431227788,-35.25,3207.1863739888895,300.125,3373.4432682905754,-81.96875,3422.1238606709485,8.65625,4584.49731847298,71.8125,3087.547463577483
D,30,772.25,5266.688802036817,-418.625,2258.3743288868213,497.25,4121.8820261501905,81.59375,3886.205498775243,68.5,10058.957652883324,-54.78125,3720.540482698507,777.125,2407.685244041463,-333.5,3726.7250703533255,587.75,4299.207361537706,123.53125,5702.497846253293,38.625,7669.15196481169,-58.46875,4850.7294102560945,812.875,6994.315458597432,-231.25,3584.0777666646686,338.875,6750.335416434875,82.96875,3759.4481849432955,67.875,4112.143470487746,-117.875,5432.238102005011,41.125,3007.923575221784,-191.5,3212.05693442691,22.25,4331.111859268934,187.53125,5999.665782276829,-110.28125,2092.474376103191,-100.375,2193.0198036896522,47.25,1903.1456690174823,49.25,1695.1632480383712,373.875,2765.1618369229313,19.875,4461.286696052496,-83.59375,2604.9039792688977,8.3125,2168.4361075078396
